file,file_emotion,file_emotion_level,file_gender,file_id,file_duration,size_w,size_h,trigger,loop_practice_full.thisRepN,loop_practice_full.thisTrialN,loop_practice_full.thisN,loop_practice_full.thisIndex,loop_istr_practice.thisRepN,loop_istr_practice.thisTrialN,loop_istr_practice.thisN,loop_istr_practice.thisIndex,tuto.thisRepN,tuto.thisTrialN,tuto.thisN,tuto.thisIndex,loop_practice.thisRepN,loop_practice.thisTrialN,loop_practice.thisN,loop_practice.thisIndex,exp_blocks.thisRepN,exp_blocks.thisTrialN,exp_blocks.thisN,exp_blocks.thisIndex,istr_1.thisRepN,istr_1.thisTrialN,istr_1.thisN,istr_1.thisIndex,istr_2.thisRepN,istr_2.thisTrialN,istr_2.thisN,istr_2.thisIndex,exp.thisRepN,exp.thisTrialN,exp.thisN,exp.thisIndex,img_tutorial.started,img_tutorial.stopped,p_port.started,p_port.stopped,mov_target.started,mov_target.stopped,p_port_2.started,p_port_2.stopped,primary.x,primary.y,primary.leftButton,primary.midButton,primary.rightButton,primary.time,primary.clicked_name,primary.started,primary.stopped,img_primary_wheel.started,img_primary_wheel.stopped,click_1.started,click_1.stopped,p_port_4.started,p_port_4.stopped,txt_iwi.started,txt_iwi.stopped,p_port_3.started,p_port_3.stopped,secondary.x,secondary.y,secondary.leftButton,secondary.midButton,secondary.rightButton,secondary.time,secondary.clicked_name,secondary.started,secondary.stopped,img_secondary_wheel.started,img_secondary_wheel.stopped,click_2.started,click_2.stopped,primary_pos.started,primary_pos.stopped,p_port_5.started,p_port_5.stopped,kb_end_practice.keys,kb_end_practice.rt,participant,session,group,age,sex,education,practice,experimenter,date,expName,psychopyVersion,frameRate,
stimoli/03.practice/F04-Joy-Face Forward.mp4,joy,full,femmina,9,6,700,700,59,0,0,0,0,,,,,,,,,0,0,0,2,,,,,,,,,,,,,,,,,4507.716855069229,None,0.0045283328554432956,0.011385749899091024,4524.884469201281,None,0.005866074452569592,0.011826061519968789,211.0,38.0,1,0,0,16.00901567519577,click_1,0.005866074452569592,None,4530.922924941753,None,4530.922924941753,None,0.0064306406584364595,0.008118052775898832,4546.929638988105,None,0.005904563227886683,0.012007920989162812,146.0,-32.0,1,0,0,6.864340533300492,click_2,0.005904563227886683,None,4547.432499666431,None,4547.432499666431,None,4547.432499666431,None,0.004589850766933523,0.00942179593766923,,,01,001,moebius,56,m,8,1,aurora,2022_Jun_24_1543,CPO_EEG,2020.1.3,144.086735094303,
stimoli/03.practice/F04-Surprise-Face Forward.mp4,surprise,full,femmina,9,6,700,700,61,0,0,0,0,,,,,,,,,0,1,1,4,,,,,,,,,,,,,,,,,,,0.0037958914499540697,0.008096050023596035,4555.95965798873,None,0.006188738697346707,0.012589422258315608,36.0,-201.0,1,0,0,14.01597380453859,click_1,0.006188738697346707,None,4562.181382208948,None,4562.181382208948,None,0.005331401195689978,0.010870577639252588,4576.197546532931,None,0.0061290810926948325,0.012473955926907365,73.0,-116.0,1,0,0,16.595545822171516,click_2,0.0061290810926948325,None,4576.699471933984,None,4576.699471933984,None,4576.699471933984,None,0.005257951781459269,0.0107230373287166,,,01,001,moebius,56,m,8,1,aurora,2022_Jun_24_1543,CPO_EEG,2020.1.3,144.086735094303,
stimoli/03.practice/F04-Anger-Face Forward.mp4,anger,full,femmina,9,6,700,700,57,0,0,0,0,,,,,,,,,0,2,2,0,,,,,,,,,,,,,,,,,,,0.0032911752932704985,0.007805267317053222,4594.90387492174,None,0.006217284539161483,0.01265389095806313,-48.0,200.0,1,0,0,5.484780896224038,click_1,0.006217284539161483,None,4600.92410269832,None,4600.92410269832,None,0.00541671798509924,0.011021646088011039,4606.409132167893,None,0.006121704077486356,0.012458560417144326,-125.0,74.0,1,0,0,11.436841521179304,click_2,0.006121704077486356,None,4606.910959743305,None,4606.910959743305,None,4606.910959743305,None,0.005394586938564316,0.011001439480423869,,,01,001,moebius,56,m,8,1,aurora,2022_Jun_24_1543,CPO_EEG,2020.1.3,144.086735094303,
stimoli/03.practice/F04-Disgust-Face Forward.mp4,disgust,full,femmina,9,6,700,700,58,0,0,0,0,,,,,,,,,0,3,3,1,,,,,,,,,,,,,,,,,,,0.0022576874907827005,0.006290669805821381,4619.95060157958,None,0.006213435661265976,0.012640419885428855,-152.0,99.0,1,0,0,3.352160439182626,click_1,0.006213435661265976,None,4625.974351399965,None,4625.974351399965,None,0.005274950991406513,0.010749658733402612,4629.326648474304,None,0.0060947619340367964,0.012390242838591803,-12.0,94.0,1,0,0,15.06085492553666,click_2,0.0060947619340367964,None,4629.828472200839,None,4629.828472200839,None,4629.828472200839,None,0.005291308721098176,0.010788147509629198,,,01,001,moebius,56,m,8,1,aurora,2022_Jun_24_1543,CPO_EEG,2020.1.3,144.086735094303,
stimoli/03.practice/F04-Sadness-Face Forward.mp4,sadness,full,femmina,9,6,700,700,60,0,0,0,0,,,,,,,,,0,4,4,3,,,,,,,,,,,,,,,,,,,0.006015988237777492,0.00967434646008769,4646.508191053155,None,0.006213114922502427,0.012672814606958127,,,,,,,,0.006213114922502427,20.008912781866456,4652.5299962281,None,4652.5299962281,None,0.005944014224951388,0.012133971733419457,4672.533256548224,None,0.006148646220935916,0.012514048402408662,29.0,-140.0,1,0,0,5.645478595108216,click_2,0.006148646220935916,None,4673.035106575422,None,4673.035106575422,None,4673.035106575422,None,0.005292270940117305,0.010807391897287744,,,01,001,moebius,56,m,8,1,aurora,2022_Jun_24_1543,CPO_EEG,2020.1.3,144.086735094303,
stimoli/03.practice/F04-Neutral-Face Forward.mp4,neutral,full,femmina,9,6,700,700,62,0,0,0,0,,,,,,,,,0,5,5,5,,,,,,,,,,,,,,,,,,,0.0013175349731682218,0.005458927342260722,4680.277507607948,None,0.00620092680946982,0.012593591874974663,-109.0,-87.0,1,0,0,4.5298493292684725,click_1,0.00620092680946982,None,4686.300267946033,None,4686.300267946033,None,0.005420566862994747,0.01103672085901053,4690.83040048855,None,0.0061367788484858465,0.012475238887418527,130.0,-72.0,1,0,0,10.119342470568881,click_2,0.0061367788484858465,None,4691.332151727889,None,4691.332151727889,None,4691.332151727889,None,0.005427623137620685,0.011078417032877041,,,01,001,moebius,56,m,8,1,aurora,2022_Jun_24_1543,CPO_EEG,2020.1.3,144.086735094303,
,,,,,,,,,0,0,0,0,,,,,,,,,,,,,,,,,,,,,,,,,,,,,,,,,,,,,,,,,,,,,,,,,,,,,,,,,,,,,,,,,,,,,,,,,n,9.723134513142213,01,001,moebius,56,m,8,1,aurora,2022_Jun_24_1543,CPO_EEG,2020.1.3,144.086735094303,
,,,,,,,,,,,,,,,,,,,,,,,,,0,0,0,0,0,0,0,0,,,,,,,,,,,,,,,,,,,,,,,,,,,,,,,,,,,,,,,,,,,,,,,,,,,,,,,01,001,moebius,56,m,8,1,aurora,2022_Jun_24_1543,CPO_EEG,2020.1.3,144.086735094303,
stimoli/01.full/M02-Sadness-Face Forward.mp4,sad,full,maschio,3,6,720,576,47,,,,,,,,,,,,,,,,,0,0,0,0,,,,,,,,,0,0,0,46,,,0.0032929714343481464,0.00891233282891335,4727.227301564697,None,0.005940486087638419,0.012072710431311862,-122.0,80.0,1,0,0,8.540389480760496,click_1,0.005940486087638419,None,4732.89265416038,None,4732.89265416038,None,0.004562908622574469,0.009330705833235697,4741.433560032227,None,0.005825981977068295,0.011853324404000887,-118.0,-76.0,1,0,0,4.750486883024678,click_2,0.005825981977068295,None,4741.935193560058,None,4741.935193560058,None,4741.935193560058,None,0.004337428539656685,0.008900914493096934,,,01,001,moebius,56,m,8,1,aurora,2022_Jun_24_1543,CPO_EEG,2020.1.3,144.086735094303,
stimoli/01.full/F01-Fear-Face Forward.mp4,fear,full,femmina,1,6,720,576,29,,,,,,,,,,,,,,,,,0,0,0,0,,,,,,,,,0,1,1,28,,,0.006210035819094628,0.008627130994682375,4748.302724492205,None,0.006136458108812803,0.012501539550612506,-116.0,-169.0,1,0,0,2.5283819446585767,click_1,0.006136458108812803,None,4754.324794598228,None,4754.324794598228,None,0.0054086994896351825,0.01102324978728575,4756.853492792335,None,0.006070385708881076,0.012366828833364707,-81.0,-59.0,1,0,0,10.87156199002402,click_2,0.006070385708881076,None,4757.355374572774,None,4757.355374572774,None,4757.355374572774,None,0.005267253234706004,0.01072656546602957,,,01,001,moebius,56,m,8,1,aurora,2022_Jun_24_1543,CPO_EEG,2020.1.3,144.086735094303,
stimoli/01.full/M02-Anger-Face Forward.mp4,angry,full,maschio,3,6,720,576,35,,,,,,,,,,,,,,,,,0,0,0,0,,,,,,,,,0,2,2,34,,,0.002150945284483896,0.006262508853069448,4769.836314289087,None,0.00617494688503939,0.012593271134392126,-130.0,33.0,1,0,0,2.146014872062551,click_1,0.00617494688503939,None,4775.856613911384,None,4775.856613911384,None,0.005414793546151486,0.011017476470442489,4778.002860036847,None,0.006130684791969543,0.012457598197215702,-36.0,55.0,1,0,0,6.313102028614594,click_2,0.006130684791969543,None,4778.504580164424,None,4778.504580164424,None,4778.504580164424,None,0.005304138312567375,0.010841711056855274,,,01,001,moebius,56,m,8,1,aurora,2022_Jun_24_1543,CPO_EEG,2020.1.3,144.086735094303,
stimoli/02.subtle/JF2_Disgust.mp4,disgusted,subtle,femmina,6,10,1646,926,10,,,,,,,,,,,,,,,,,0,0,0,0,,,,,,,,,0,3,3,9,,,0.0006072887463233201,0.004181292400062375,4786.536825740781,None,0.006201568289725401,0.012634325830731541,-27.0,-153.0,1,0,0,14.146704462645175,click_1,0.006201568289725401,None,4796.963251878252,None,4796.963251878252,None,0.005396832117185113,0.011035758639081905,4811.11021646088,None,0.006133892190518964,0.012484219601901714,-51.0,38.0,1,0,0,7.2614927487147725,click_2,0.006133892190518964,None,4811.611993359403,None,4811.611993359403,None,4811.611993359403,None,0.005302855353875202,0.010800977101098397,,,01,001,moebius,56,m,8,1,aurora,2022_Jun_24_1543,CPO_EEG,2020.1.3,144.086735094303,
stimoli/02.subtle/JF1_Disgust.mp4,disgusted,subtle,femmina,5,10,1646,926,9,,,,,,,,,,,,,,,,,0,0,0,0,,,,,,,,,0,4,4,8,,,0.00626879535138869,0.010474977161720744,4820.49925716661,None,0.006231717829905392,0.0126824368007874,-83.0,-61.0,1,0,0,10.278225423633558,click_1,0.006231717829905392,None,4831.324553722634,None,4831.324553722634,None,0.005401963954682287,0.010996949123182276,4841.602991476018,None,0.00611015744470933,0.012463371514058963,-12.0,-62.0,1,0,0,4.6057354050562935,click_2,0.00611015744470933,None,4842.104763242705,None,4842.104763242705,None,4842.104763242705,None,0.0051957282585135545,0.010629381305079733,,,01,001,moebius,56,m,8,1,aurora,2022_Jun_24_1543,CPO_EEG,2020.1.3,144.086735094303,
stimoli/01.full/F03-Sadness-Face Forward.mp4,sad,full,femmina,2,6,720,576,46,,,,,,,,,,,,,,,,,0,0,0,0,,,,,,,,,0,5,5,45,,,0.000730132092940039,0.005040233600084321,4848.328287133972,None,0.00621183196290076,0.01266479611149407,-7.0,-100.0,1,0,0,13.727639945192095,click_1,0.00621183196290076,None,4854.353802947727,None,4854.353802947727,None,0.005385285483498592,0.011005288357409881,4868.081682164814,None,0.006104063388193026,0.012412053145453683,-57.0,-85.0,1,0,0,5.253909818229658,click_2,0.006104063388193026,None,4868.583330767415,None,4868.583330767415,None,4868.583330767415,None,0.005281365786686365,0.01079776970345847,,,01,001,moebius,56,m,8,1,aurora,2022_Jun_24_1543,CPO_EEG,2020.1.3,144.086735094303,
stimoli/01.full/M02-Surprise-Face Forward.mp4,surprised,full,maschio,3,6,720,576,51,,,,,,,,,,,,,,,,,0,0,0,0,,,,,,,,,0,6,6,50,,,0.002070696183182008,0.005668434582730697,4875.439295501432,None,0.006228831172848004,0.01264619320318161,49.0,-205.0,1,0,0,1.2332214592888704,click_1,0.006228831172848004,None,4881.461764928514,None,4881.461764928514,None,0.005383361045460333,0.010969686239150178,4882.695224697478,None,0.006103742648519983,0.01243450493166165,61.0,-90.0,1,0,0,4.5360764925953845,click_2,0.006103742648519983,None,4883.1969666353625,None,4883.1969666353625,None,4883.1969666353625,None,0.005298044256960566,0.01078686455002753,,,01,001,moebius,56,m,8,1,aurora,2022_Jun_24_1543,CPO_EEG,2020.1.3,144.086735094303,
stimoli/01.full/M03-Anger-Face Forward.mp4,angry,full,maschio,4,6,720,576,36,,,,,,,,,,,,,,,,,0,0,0,0,,,,,,,,,0,7,7,35,,,0.001945928399436525,0.00540991829984705,4889.33508713859,None,0.006212473442246846,0.012612515522960166,-202.0,38.0,1,0,0,2.215658068274024,click_1,0.006212473442246846,None,4895.3603716989455,None,4895.3603716989455,None,0.005392983238380111,0.010989892846737348,4897.576279302789,None,0.006122666296505486,0.012459522635253961,-52.0,82.0,1,0,0,8.216271322781722,click_2,0.006122666296505486,None,4898.078056522051,None,4898.078056522051,None,4898.078056522051,None,0.005218500785304059,0.010647663474628644,,,01,001,moebius,56,m,8,1,aurora,2022_Jun_24_1543,CPO_EEG,2020.1.3,144.086735094303,
stimoli/01.full/M03-Disgust-Face Forward.mp4,disgusted,full,maschio,4,6,720,576,40,,,,,,,,,,,,,,,,,0,0,0,0,,,,,,,,,0,8,8,39,,,0.002065051165118348,0.006236593076209829,4907.910632267964,None,0.006239736326278944,0.012692700474872254,-115.0,176.0,1,0,0,1.8812371062595048,click_1,0.006239736326278944,None,4913.935113054366,None,4913.935113054366,None,0.005386889182773302,0.010987647668116551,4915.816546774127,None,0.006113044102676213,0.012437712329301576,-53.0,32.0,1,0,0,2.564033457010737,click_2,0.006113044102676213,None,4916.318238035122,None,4916.318238035122,None,4916.318238035122,None,0.005305742011842085,0.0108154103927518,,,01,001,moebius,56,m,8,1,aurora,2022_Jun_24_1543,CPO_EEG,2020.1.3,144.086735094303,
stimoli/01.full/F03-Surprise-Face Forward.mp4,surprised,full,femmina,2,6,720,576,50,,,,,,,,,,,,,,,,,0,0,0,0,,,,,,,,,0,9,9,49,,,0.001195012366224546,0.0046939629055486876,4920.478293292176,None,0.00621183196290076,0.012656777616939507,41.0,-190.0,1,0,0,1.4073504582729583,click_1,0.00621183196290076,None,4926.503872933153,None,4926.503872933153,None,0.005426340178019018,0.011051154148844944,4927.911429306381,None,0.006137741067504976,0.012499935851337796,53.0,-79.0,1,0,0,10.487295817039922,click_2,0.006137741067504976,None,4928.41317990424,None,4928.41317990424,None,4928.41317990424,None,0.005276554689771729,0.010768261640805576,,,01,001,moebius,56,m,8,1,aurora,2022_Jun_24_1543,CPO_EEG,2020.1.3,144.086735094303,
stimoli/02.subtle/JF2_Fear.mp4,fear,subtle,femmina,6,10,1646,926,2,,,,,,,,,,,,,,,,,0,0,0,0,,,,,,,,,0,10,10,1,,,0.002561299789704208,0.0062421097991318675,4940.5564684879555,None,0.006199964590450691,0.012643948024560814,91.0,-59.0,1,0,0,15.283108045693552,click_1,0.006199964590450691,None,4950.98269223861,None,4950.98269223861,None,0.0053872099224463454,0.010977063254358654,4966.265999784463,None,0.006130684791969543,0.012498011413299537,-11.0,-67.0,1,0,0,6.536702576695461,click_2,0.006130684791969543,None,4966.767807153267,None,4966.767807153267,None,4966.767807153267,None,0.0052422355311136926,0.01072720694628515,,,01,001,moebius,56,m,8,1,aurora,2022_Jun_24_1543,CPO_EEG,2020.1.3,144.086735094303,
stimoli/02.subtle/JF1_Neutral.mp4,neutral,subtle,femmina,5,10,1646,926,25,,,,,,,,,,,,,,,,,0,0,0,0,,,,,,,,,0,11,11,24,,,0.0052562197861334425,0.009280862866944517,4974.931138125956,None,0.006209586785189458,0.012656777617849002,0.0,0.0,1,0,0,6.584851715572768,click_1,0.006209586785189458,None,4985.758286954358,None,4985.758286954358,None,0.00537373885163106,0.010970969198751845,4992.3433667159325,None,0.0061951534926265595,0.01260096889018314,0.0,0.0,1,0,0,1.2470828714676827,click_2,0.0061951534926265595,None,4992.845075617616,None,4992.845075617616,None,4992.845075617616,None,0.005307987191372376,0.010782053453112894,,,01,001,moebius,56,m,8,1,aurora,2022_Jun_24_1543,CPO_EEG,2020.1.3,144.086735094303,
stimoli/01.full/F01-Disgust-Face Forward.mp4,disgusted,full,femmina,1,6,720,576,37,,,,,,,,,,,,,,,,,0,0,0,0,,,,,,,,,0,12,12,36,,,0.006107591525505995,0.009835550285970385,4995.730980450267,None,0.006201568289725401,0.012619892539987632,-174.0,118.0,1,0,0,4.013714513347622,click_1,0.006201568289725401,None,5001.7561598079665,None,5001.7561598079665,None,0.005386568444009754,0.011001118740750826,5005.770123856883,None,0.006037028768332675,0.012289530539419502,-48.0,77.0,1,0,0,2.0972566482942057,click_2,0.006037028768332675,None,5006.271856493313,None,5006.271856493313,None,5006.271856493313,None,0.005307345711116795,0.010824391107234987,,,01,001,moebius,56,m,8,1,aurora,2022_Jun_24_1543,CPO_EEG,2020.1.3,144.086735094303,
stimoli/01.full/M02-Disgust-Face Forward.mp4,disgusted,full,maschio,3,6,720,576,39,,,,,,,,,,,,,,,,,0,0,0,0,,,,,,,,,0,13,13,38,,,0.006159166486213508,0.010190545102886972,5009.967816326426,None,0.0061890594370197505,0.012566008252179017,-16.0,91.0,1,0,0,6.1110080467196894,click_1,0.0061890594370197505,None,5015.990582758567,None,5015.990582758567,None,0.005399718775151996,0.011036079379664443,5022.101911865833,None,0.00612779813400266,0.0124681826109736,-62.0,7.0,1,0,0,7.97856720396976,click_2,0.00612779813400266,None,5022.603591580195,None,5022.603591580195,None,5022.603591580195,None,0.005269819154818833,0.010749979473075655,,,01,001,moebius,56,m,8,1,aurora,2022_Jun_24_1543,CPO_EEG,2020.1.3,144.086735094303,
stimoli/01.full/M03-Fear-Face Forward.mp4,fear,full,maschio,4,6,720,576,32,,,,,,,,,,,,,,,,,0,0,0,0,,,,,,,,,0,14,14,31,,,0.004042027178002172,0.0076907632073925924,5032.189113641962,None,0.006218888238436193,0.012631759911528206,26.0,-127.0,1,0,0,10.605620900944814,click_1,0.006218888238436193,None,5038.2101301177245,None,5038.2101301177245,None,0.005384002523896925,0.010970648458169308,5048.815983555029,None,0.00612523221570882,0.012475880366764613,-32.0,-58.0,1,0,0,7.080331529492469,click_2,0.00612523221570882,None,5049.31779637641,None,5049.31779637641,None,5049.31779637641,None,0.005270460633255425,0.01074997947216616,,,01,001,moebius,56,m,8,1,aurora,2022_Jun_24_1543,CPO_EEG,2020.1.3,144.086735094303,
stimoli/01.full/F01-Neutral-Face Forward.mp4,neutral,full,femmina,1,6,720,576,53,,,,,,,,,,,,,,,,,0,0,0,0,,,,,,,,,0,15,15,52,,,0.003850160624097043,0.007881539240770508,5058.067012809065,None,0.006196436452228227,0.01260577998800727,-5.0,0.0,1,0,0,0.9194522918787698,click_1,0.006196436452228227,None,5064.091008316142,None,5064.091008316142,None,0.005487922222528141,0.011193883364285284,5065.01083876025,None,0.00611176114398404,0.012439957508831867,0.0,0.0,1,0,0,0.49438641192227806,click_2,0.00611176114398404,None,5065.512574283339,None,5065.512574283339,None,5065.512574283339,None,0.005204388233323698,0.010613665054734156,,,01,001,moebius,56,m,8,1,aurora,2022_Jun_24_1543,CPO_EEG,2020.1.3,144.086735094303,
stimoli/02.subtle/JF1_Surprise.mp4,surprised,subtle,femmina,5,10,1646,926,21,,,,,,,,,,,,,,,,,0,0,0,0,,,,,,,,,0,16,16,20,,,0.006636683909164276,0.010250138559968036,5067.631680047931,None,0.006238132627004234,0.012762301013026445,129.0,-22.0,1,0,0,9.09385584413576,click_1,0.006238132627004234,None,5078.4559425388225,None,5078.4559425388225,None,0.005389134361394099,0.010987006188770465,5087.549938866993,None,0.00612523221570882,0.012461767815693747,57.0,-84.0,1,0,0,6.821619915633164,click_2,0.00612523221570882,None,5088.05162659985,None,5088.05162659985,None,5088.05162659985,None,0.005284252444653248,0.010777563095871301,,,01,001,moebius,56,m,8,1,aurora,2022_Jun_24_1543,CPO_EEG,2020.1.3,144.086735094303,
stimoli/01.full/M03-Surprise-Face Forward.mp4,surprised,full,maschio,4,6,720,576,52,,,,,,,,,,,,,,,,,0,0,0,0,,,,,,,,,0,17,17,51,,,0.0016381464829464676,0.005629753363791679,5096.489928770104,None,0.00621856749876315,0.012653249479626538,51.0,-86.0,1,0,0,12.758972696062301,click_1,0.00621856749876315,None,5102.514656205417,None,5102.514656205417,None,0.005387851401792432,0.010987326928443508,5115.273845080108,None,0.006011690324157826,0.012241098828781105,21.0,-95.0,1,0,0,8.612476714290096,click_2,0.006011690324157826,None,5115.7755645662055,None,5115.7755645662055,None,5115.7755645662055,None,0.005288742802804336,0.010805146719576442,,,01,001,moebius,56,m,8,1,aurora,2022_Jun_24_1543,CPO_EEG,2020.1.3,144.086735094303,
stimoli/02.subtle/JM1_Fear.mp4,fear,subtle,maschio,7,10,1646,926,3,,,,,,,,,,,,,,,,,0,0,0,0,,,,,,,,,0,18,18,2,,,0.0022488350732601248,0.005864534901775187,5126.003654509345,None,0.006221454157639528,0.012657739836868132,-65.0,-14.0,1,0,0,10.885274258193022,click_1,0.006221454157639528,None,5136.426711916638,None,5136.426711916638,None,0.005368286274460843,0.010977383994941192,5147.312218390451,None,0.006121383337813313,0.012465295953006716,-51.0,-39.0,1,0,0,2.92664263684037,click_2,0.006121383337813313,None,5147.8140110052245,None,5147.8140110052245,None,5147.8140110052245,None,0.005305100532495999,0.010847484373698535,,,01,001,moebius,56,m,8,1,aurora,2022_Jun_24_1543,CPO_EEG,2020.1.3,144.086735094303,
stimoli/02.subtle/JF1_Sadness.mp4,sad,subtle,femmina,5,10,1646,926,17,,,,,,,,,,,,,,,,,0,0,0,0,,,,,,,,,0,19,19,16,,,0.006362387227454747,0.010439952376145811,5152.359508588129,None,0.006208945304933877,0.012635608790333208,-108.0,-75.0,1,0,0,4.0972550445958404,click_1,0.006208945304933877,None,5163.181764851536,None,5163.181764851536,None,0.005387851402701926,0.010990213587319886,5167.279260450986,None,0.00611689298057172,0.012428731614818389,-94.0,-22.0,1,0,0,4.633625976332041,click_2,0.00611689298057172,None,5167.780965503793,None,5167.780965503793,None,5167.780965503793,None,0.005225877800512535,0.010662738245628134,,,01,001,moebius,56,m,8,1,aurora,2022_Jun_24_1543,CPO_EEG,2020.1.3,144.086735094303,
stimoli/02.subtle/JM2_Neutral.mp4,neutral,subtle,maschio,8,10,1646,926,28,,,,,,,,,,,,,,,,,0,0,0,0,,,,,,,,,0,20,20,27,,,0.0019221936536268913,0.005348015517483873,5174.016569418358,None,0.006219208978109236,0.012629193993234367,0.0,0.0,1,0,0,9.19871274286379,click_1,0.006219208978109236,None,5185.00325069793,None,5185.00325069793,None,0.0053448722674147575,0.010919971568910114,5194.202187958658,None,0.0061848898194512,0.012590384477334737,0.0,0.0,1,0,0,1.1077464436375521,click_2,0.0061848898194512,None,5194.70396549866,None,5194.70396549866,None,5194.70396549866,None,0.005341344131011283,0.010890463508076209,,,01,001,moebius,56,m,8,1,aurora,2022_Jun_24_1543,CPO_EEG,2020.1.3,144.086735094303,
stimoli/02.subtle/JM1_Happiness.mp4,happy,subtle,maschio,7,10,1646,926,15,,,,,,,,,,,,,,,,,0,0,0,0,,,,,,,,,0,21,21,14,,,0.004386373431771062,0.008568820497202978,5197.575391174267,None,0.0062378118873311905,0.01268147458176827,112.0,83.0,1,0,0,3.727954270201735,click_1,0.0062378118873311905,None,5208.002355833872,None,5208.002355833872,None,0.005510374007826613,0.011208637393792742,5211.730657144543,None,0.006127477394329617,0.01245118340193585,6.0,-1.0,1,0,0,5.846182169946587,click_2,0.006127477394329617,None,5212.232354499594,None,5212.232354499594,None,5212.232354499594,None,0.005298685736306652,0.010802260060700064,,,01,001,moebius,56,m,8,1,aurora,2022_Jun_24_1543,CPO_EEG,2020.1.3,144.086735094303,
stimoli/01.full/F03-Joy-Face Forward.mp4,happy,full,femmina,2,6,720,576,42,,,,,,,,,,,,,,,,,0,0,0,0,,,,,,,,,0,22,22,41,,,0.0032414606230304344,0.006869348563668609,5219.720184027671,None,0.006234283749108727,0.012657419096285594,158.0,28.0,1,0,0,2.515346437478911,click_1,0.006234283749108727,None,5225.747451401505,None,5225.747451401505,None,0.005395228417910403,0.010988930627718219,5228.263020753148,None,0.006033821371602244,0.012311340846281382,92.0,55.0,1,0,0,8.02084520070639,click_2,0.006033821371602244,None,5228.764712655623,None,5228.764712655623,None,5228.764712655623,None,0.005299968695908319,0.010804184499647818,,,01,001,moebius,56,m,8,1,aurora,2022_Jun_24_1543,CPO_EEG,2020.1.3,144.086735094303,
stimoli/01.full/M03-Sadness-Face Forward.mp4,sad,full,maschio,4,6,720,576,48,,,,,,,,,,,,,,,,,0,0,0,0,,,,,,,,,0,23,23,47,,,0.0018611889427120332,0.005910208248678828,5238.381716291529,None,0.0062143978811946,0.012664475371821027,-89.0,-22.0,1,0,0,15.630095914031699,click_1,0.0062143978811946,None,5244.407069169463,None,5244.407069169463,None,0.005374380330067652,0.010990534326992929,5260.037396016155,None,0.006128760353021789,0.012478125544475915,0.0,0.0,1,0,0,0.8010944925126751,click_2,0.006128760353021789,None,5260.53907091942,None,5260.53907091942,None,5260.53907091942,None,0.005209840810493915,0.010645097556334804,,,01,001,moebius,56,m,8,1,aurora,2022_Jun_24_1543,CPO_EEG,2020.1.3,144.086735094303,
stimoli/02.subtle/JF2_Sadness.mp4,sad,subtle,femmina,6,8,1646,926,18,,,,,,,,,,,,,,,,,0,0,0,0,,,,,,,,,0,24,24,17,,,0.0020325922951087705,0.005702176411432447,5262.949019370119,None,0.006228831172848004,0.012666079071095737,-94.0,-22.0,1,0,0,8.069165935380624,click_1,0.006228831172848004,None,5271.331081739898,None,5271.331081739898,None,0.005388172141465475,0.010986043968841841,5279.400457759851,None,0.006118817419519473,0.01245214562095498,-50.0,-38.0,1,0,0,2.2435627521008428,click_2,0.006118817419519473,None,5279.902267373834,None,5279.902267373834,None,5279.902267373834,None,0.005403246912464965,0.011006892056684592,,,01,001,moebius,56,m,8,1,aurora,2022_Jun_24_1543,CPO_EEG,2020.1.3,144.086735094303,
stimoli/01.full/F01-Anger-Face Forward.mp4,angry,full,femmina,1,6,720,576,33,,,,,,,,,,,,,,,,,0,0,0,0,,,,,,,,,0,25,25,32,,,0.0053403177626023535,0.00928894550906989,5283.745225146514,None,0.006191304615640547,0.012574347487316118,-26.0,138.0,1,0,0,5.720957010602433,click_1,0.006191304615640547,None,5289.768633699747,None,5289.768633699747,None,0.005072564173133287,0.010358676909163478,5295.489785078671,None,0.006040877647137677,0.012284398702831822,-96.0,11.0,1,0,0,3.2119881634180274,click_2,0.006040877647137677,None,5295.991443624206,None,5295.991443624206,None,5295.991443624206,None,0.005266611756269413,0.010758639446976304,,,01,001,moebius,56,m,8,1,aurora,2022_Jun_24_1543,CPO_EEG,2020.1.3,144.086735094303,
stimoli/02.subtle/JM1_Sadness.mp4,sad,subtle,maschio,7,10,1646,926,19,,,,,,,,,,,,,,,,,0,0,0,0,,,,,,,,,0,26,26,18,,,0.001032782172842417,0.004498696512200695,5300.806497996017,None,0.006214077141521557,0.012628231774215237,-14.0,-68.0,1,0,0,19.009939726575794,click_1,0.006214077141521557,None,5311.229152874855,None,5311.229152874855,None,0.0053711729333372205,0.010945630754576996,5330.239319685213,None,0.006105025607212156,0.012408204266648681,1.0,0.0,1,0,0,2.2088186126593428,click_2,0.006105025607212156,None,5330.741119677002,None,5330.741119677002,None,5330.741119677002,None,0.005297082037941436,0.010802901540955645,,,01,001,moebius,56,m,8,1,aurora,2022_Jun_24_1543,CPO_EEG,2020.1.3,144.086735094303,
stimoli/02.subtle/JM2_Fear.mp4,fear,subtle,maschio,8,10,1646,926,4,,,,,,,,,,,,,,,,,0,0,0,0,,,,,,,,,0,27,27,3,,,0.0011010997523044352,0.005035614947701106,5334.5874795368,None,0.00620253050874453,0.01261764736045734,14.0,-65.0,1,0,0,5.672415927681868,click_1,0.00620253050874453,None,5345.212058084696,None,5345.212058084696,None,0.005358664079722075,0.010904255318564537,5350.884700133941,None,0.006099573030951433,0.012452466360628023,-1.0,0.0,1,0,0,2.6825888320963713,click_2,0.006099573030951433,None,5351.3864770324635,None,5351.3864770324635,None,5351.3864770324635,None,0.0052618006584452814,0.010769544600407244,,,01,001,moebius,56,m,8,1,aurora,2022_Jun_24_1543,CPO_EEG,2020.1.3,144.086735094303,
stimoli/02.subtle/JM1_Disgust.mp4,disgusted,subtle,maschio,7,10,1646,926,11,,,,,,,,,,,,,,,,,0,0,0,0,,,,,,,,,0,28,28,10,,,0.004214264454276417,0.007784739970702503,5355.675749055742,None,0.006226265253644669,0.012662550932873273,-82.0,56.0,1,0,0,4.0277443139248135,click_1,0.006226265253644669,None,5366.101430114645,None,5366.101430114645,None,0.005399077294896415,0.01100208095886046,5370.12938964498,None,0.005870885549484228,0.012002468413811584,-52.0,78.0,1,0,0,2.5220595216096626,click_2,0.005870885549484228,None,5370.631177127916,None,5370.631177127916,None,5370.631177127916,None,0.005246405148682243,0.01070539663942327,,,01,001,moebius,56,m,8,1,aurora,2022_Jun_24_1543,CPO_EEG,2020.1.3,144.086735094303,
stimoli/01.full/M03-Joy-Face Forward.mp4,happy,full,maschio,4,6,720,576,44,,,,,,,,,,,,,,,,,0,0,0,0,,,,,,,,,0,29,29,43,,,0.004084428980604571,0.008078601779743622,5374.767568202112,None,0.00617141874772642,0.012558310497297498,162.0,103.0,1,0,0,3.191335406595499,click_1,0.00617141874772642,None,5380.790616243803,None,5380.790616243803,None,0.005389455101067142,0.011021646088011039,5383.982248013979,None,0.006037670248588256,0.01228407796315878,140.0,16.0,1,0,0,3.2681590048341604,click_2,0.006037670248588256,None,5384.483941520152,None,5384.483941520152,None,5384.483941520152,None,0.005292270940117305,0.010829522943822667,,,01,001,moebius,56,m,8,1,aurora,2022_Jun_24_1543,CPO_EEG,2020.1.3,144.086735094303,
stimoli/01.full/M03-Neutral-Face Forward.mp4,neutral,full,maschio,4,6,720,576,56,,,,,,,,,,,,,,,,,0,0,0,0,,,,,,,,,0,30,30,55,,,0.006314853587355174,0.01048382958106231,5389.364399870165,None,0.006225623774298583,0.012666079070186242,-16.0,-103.0,1,0,0,8.556980388685588,click_1,0.006225623774298583,None,5395.38846337408,None,5395.38846337408,None,0.005386889183682797,0.010961347004922573,5403.945662828052,None,0.00613196775157121,0.01248325738197309,0.0,0.0,1,0,0,1.6790292617342857,click_2,0.00613196775157121,None,5404.447383917849,None,5404.447383917849,None,5404.447383917849,None,0.005268856934890209,0.010740036538663844,,,01,001,moebius,56,m,8,1,aurora,2022_Jun_24_1543,CPO_EEG,2020.1.3,144.086735094303,
stimoli/02.subtle/JM2_Happiness.mp4,happy,subtle,maschio,8,10,1646,926,16,,,,,,,,,,,,,,,,,0,0,0,0,,,,,,,,,0,31,31,15,,,0.0049658861144052935,0.008469647750644071,5407.745797667067,None,0.00624294372391887,0.012685323458754283,99.0,-20.0,1,0,0,8.431497675278479,click_1,0.00624294372391887,None,5418.373305531607,None,5418.373305531607,None,0.005379512168474321,0.011005609098901914,5426.805080967556,None,0.0061229870370880235,0.01247812554538541,6.0,-2.0,1,0,0,7.1637681410438745,click_2,0.0061229870370880235,None,5427.306835735033,None,5427.306835735033,None,5427.306835735033,None,0.0052762339500986855,0.01075992240657797,,,01,001,moebius,56,m,8,1,aurora,2022_Jun_24_1543,CPO_EEG,2020.1.3,144.086735094303,
stimoli/02.subtle/JF2_Surprise.mp4,surprised,subtle,femmina,6,10,1646,926,22,,,,,,,,,,,,,,,,,0,0,0,0,,,,,,,,,0,32,32,21,,,0.0024628326700621983,0.006397668605131912,5436.127178785499,None,0.006185210558214749,0.012575309704516258,21.0,-94.0,1,0,0,3.4769413738958974,click_1,0.006185210558214749,None,5446.554264364011,None,5446.554264364011,None,0.005407737270616053,0.011021646088011039,5450.031503705186,None,0.0060880263981744065,0.012405317609591293,0.0,0.0,1,0,0,3.7695308089832906,click_2,0.0060880263981744065,None,5450.533220625365,None,5450.533220625365,None,5450.533220625365,None,0.005141523231941392,0.010485048393093166,,,01,001,moebius,56,m,8,1,aurora,2022_Jun_24_1543,CPO_EEG,2020.1.3,144.086735094303,
stimoli/02.subtle/JM2_Sadness.mp4,sad,subtle,maschio,8,10,1646,926,20,,,,,,,,,,,,,,,,,0,0,0,0,,,,,,,,,0,33,33,19,,,0.005491835246175469,0.00881598259184102,5455.948626784596,None,0.0062346044896912645,0.012662550933782768,-85.0,-64.0,1,0,0,5.7767150598883745,click_1,0.0062346044896912645,None,5466.571022377375,None,5466.571022377375,None,0.0054141520668054,0.01103158902242285,5472.347989859491,None,0.00610342190884694,0.012454070058993238,-61.0,-17.0,1,0,0,2.8011121332019684,click_2,0.00610342190884694,None,5472.849660913877,None,5472.849660913877,None,5472.849660913877,None,0.005289384283059917,0.010789751208903908,,,01,001,moebius,56,m,8,1,aurora,2022_Jun_24_1543,CPO_EEG,2020.1.3,144.086735094303,
stimoli/01.full/M02-Fear-Face Forward.mp4,fear,full,maschio,3,6,720,576,31,,,,,,,,,,,,,,,,,0,0,0,0,,,,,,,,,0,34,34,30,,,0.0021148299811102333,0.006415950774680823,5477.274079220166,None,0.006210549004208588,0.012658060576541175,-81.0,-129.0,1,0,0,3.888209027414632,click_1,0.006210549004208588,None,5483.296020388788,None,5483.296020388788,None,0.005293553898809478,0.010813485953804047,5487.1844308408,None,0.0061229870370880235,0.0124848610812478,17.0,-100.0,1,0,0,8.870439400704527,click_2,0.0061229870370880235,None,5487.6861586661325,None,5487.6861586661325,None,5487.6861586661325,None,0.0053150434669078095,0.010817014092026511,,,01,001,moebius,56,m,8,1,aurora,2022_Jun_24_1543,CPO_EEG,2020.1.3,144.086735094303,
stimoli/01.full/F03-Fear-Face Forward.mp4,fear,full,femmina,2,6,720,576,30,,,,,,,,,,,,,,,,,0,0,0,0,,,,,,,,,0,35,35,29,,,0.0044261451685088105,0.007957490427543235,5498.149432675432,None,0.006219850458364817,0.012661588713854144,-142.0,-167.0,1,0,0,2.2018300130348507,click_1,0.006219850458364817,None,5504.173070878365,None,5504.173070878365,None,0.00541671798509924,0.01102324978728575,5506.3751193152075,None,0.0061152892812970094,0.012443164906471793,7.0,5.0,1,0,0,7.665060401720439,click_2,0.0061152892812970094,None,5506.876807368804,None,5506.876807368804,None,5506.876807368804,None,0.005278158389046439,0.010746451334853191,,,01,001,moebius,56,m,8,1,aurora,2022_Jun_24_1543,CPO_EEG,2020.1.3,144.086735094303,
stimoli/02.subtle/JM2_Surprise.mp4,surprised,subtle,maschio,8,10,1646,926,24,,,,,,,,,,,,,,,,,0,0,0,0,,,,,,,,,0,36,36,23,,,0.0026657968201106996,0.006100599398450868,5516.156765428867,None,0.006213114922502427,0.012618930320059007,112.0,-78.0,1,0,0,10.26498560519758,click_1,0.006213114922502427,None,5527.1420139637285,None,5527.1420139637285,None,0.005376625509597943,0.010989892846737348,5537.407277971077,None,0.006083856779696362,0.012355923679024272,97.0,-23.0,1,0,0,3.3517896639668834,click_2,0.006083856779696362,None,5537.909041077788,None,5537.909041077788,None,5537.909041077788,None,0.005277516908790858,0.010762809064544854,,,01,001,moebius,56,m,8,1,aurora,2022_Jun_24_1543,CPO_EEG,2020.1.3,144.086735094303,
stimoli/02.subtle/JF2_Anger.mp4,angry,subtle,femmina,6,9,1646,926,6,,,,,,,,,,,,,,,,,0,0,0,0,,,,,,,,,0,37,37,5,,,0.001899677719848114,0.005938433351730055,5542.890875016678,None,0.006219208977199742,0.012626628074031032,-145.0,21.0,1,0,0,1.9857479267384406,click_1,0.006219208977199742,None,5552.395066765198,None,5552.395066765198,None,0.005386889182773302,0.010984761010149668,5554.38105588827,None,0.006114647801950923,0.012447655263713386,-19.0,92.0,1,0,0,5.2120115774232545,click_2,0.006114647801950923,None,5554.88282059868,None,5554.88282059868,None,5554.88282059868,None,0.0053044590531499125,0.010803222280628688,,,01,001,moebius,56,m,8,1,aurora,2022_Jun_24_1543,CPO_EEG,2020.1.3,144.086735094303,
stimoli/02.subtle/JF1_Happiness.mp4,happy,subtle,femmina,5,10,1646,926,13,,,,,,,,,,,,,,,,,0,0,0,0,,,,,,,,,0,38,38,12,,,0.00019026285190193448,0.0038755632185711875,5561.705601271669,None,0.0062201711980378604,0.012627590293959656,149.0,-33.0,1,0,0,2.8151044072210425,click_1,0.0062201711980378604,None,5572.529936249756,None,5572.529936249756,None,0.005384002523896925,0.010977063254358654,5575.345280891092,None,0.0061335714508459205,0.012480370724006207,122.0,82.0,1,0,0,3.8606068012231844,click_2,0.0061335714508459205,None,5575.847036941528,None,5575.847036941528,None,5575.847036941528,None,0.005273026552458759,0.010745489115834062,,,01,001,moebius,56,m,8,1,aurora,2022_Jun_24_1543,CPO_EEG,2020.1.3,144.086735094303,
stimoli/02.subtle/JM1_Surprise.mp4,surprised,subtle,maschio,7,10,1646,926,23,,,,,,,,,,,,,,,,,0,0,0,0,,,,,,,,,0,39,39,22,,,0.002283154231008666,0.00611278751057398,5581.391455234987,None,0.006231397091141844,0.012671210908592911,21.0,-101.0,1,0,0,7.999863044103222,click_1,0.006231397091141844,None,5591.813755375599,None,5591.813755375599,None,0.005345193007997295,0.01089623682310048,5599.813865068612,None,0.00611432706227788,0.012471069269849977,6.0,1.0,1,0,0,9.212187342837751,click_2,0.00611432706227788,None,5600.31563426938,None,5600.31563426938,None,5600.31563426938,None,0.005197011219024716,0.01062970204566227,,,01,001,moebius,56,m,8,1,aurora,2022_Jun_24_1543,CPO_EEG,2020.1.3,144.086735094303,
stimoli/01.full/F03-Disgust-Face Forward.mp4,disgusted,full,femmina,2,6,720,576,38,,,,,,,,,,,,,,,,,0,0,0,0,,,,,,,,,0,40,40,37,,,0.0026820262537512463,0.0063785525135244825,5611.129457000338,None,0.006144797343040409,0.012507954346801853,-38.0,196.0,1,0,0,4.550321509580499,click_1,0.006144797343040409,None,5617.1542825820325,None,5617.1542825820325,None,0.005388492882957507,0.010985081750732206,5621.704898851494,None,0.006103101168264402,0.012431618272785272,-85.0,118.0,1,0,0,2.8918702722958187,click_2,0.006103101168264402,None,5622.206691787008,None,5622.206691787008,None,5622.206691787008,None,0.005296119818012812,0.010824391107234987,,,01,001,moebius,56,m,8,1,aurora,2022_Jun_24_1543,CPO_EEG,2020.1.3,144.086735094303,
stimoli/02.subtle/JF1_Anger.mp4,angry,subtle,femmina,5,10,1646,926,5,,,,,,,,,,,,,,,,,0,0,0,0,,,,,,,,,0,41,41,4,,,0.00516468064597575,0.009259886483960145,5626.711812077265,None,0.0062211334179664846,0.012675059786488418,-134.0,34.0,1,0,0,2.6059528666437473,click_1,0.0062211334179664846,None,5637.537430656054,None,5637.537430656054,None,0.005264687317321659,0.010745168375251524,5640.143635303445,None,0.00608995083712216,0.012422316818629042,30.0,143.0,1,0,0,10.584671780542521,click_2,0.00608995083712216,None,5640.645389108702,None,5640.645389108702,None,5640.645389108702,None,0.005103675934151397,0.010422824870147451,,,01,001,moebius,56,m,8,1,aurora,2022_Jun_24_1543,CPO_EEG,2020.1.3,144.086735094303,
stimoli/01.full/F03-Neutral-Face Forward.mp4,neutral,full,femmina,2,6,720,576,54,,,,,,,,,,,,,,,,,0,0,0,0,,,,,,,,,0,42,42,53,,,0.002122720181432669,0.005880828483896039,5652.906967174205,None,0.00619579497288214,0.012596478533851041,0.0,0.0,1,0,0,4.076215796307224,click_1,0.00619579497288214,None,5658.929048826862,None,5658.929048826862,None,0.005369248494389467,0.010928952284302795,5663.005508385421,None,0.006174946885948884,0.012557027538605325,0.0,0.0,1,0,0,1.3306724759058852,click_2,0.006174946885948884,None,5663.507221135983,None,5663.507221135983,None,5663.507221135983,None,0.0053038175728943315,0.010805788198013033,,,01,001,moebius,56,m,8,1,aurora,2022_Jun_24_1543,CPO_EEG,2020.1.3,144.086735094303,
stimoli/01.full/F01-Sadness-Face Forward.mp4,sad,full,femmina,1,6,720,576,45,,,,,,,,,,,,,,,,,0,0,0,0,,,,,,,,,0,43,43,44,,,0.0010534378170632408,0.004791980991285527,5666.454645146308,None,0.006213114922502427,0.012617968100130383,118.0,-82.0,1,0,0,18.509395110385412,click_1,0.006213114922502427,None,5672.479399523765,None,5672.479399523765,None,0.005380153646910912,0.010996307642926695,5690.98906116893,None,0.0061162515012256335,0.012446693044694257,1.0,2.0,1,0,0,2.7941992281712373,click_2,0.0061162515012256335,None,5691.490788352783,None,5691.490788352783,None,5691.490788352783,None,0.005222670402872609,0.010652795311216323,,,01,001,moebius,56,m,8,1,aurora,2022_Jun_24_1543,CPO_EEG,2020.1.3,144.086735094303,
stimoli/02.subtle/JF2_Neutral.mp4,neutral,subtle,femmina,6,9,1646,926,26,,,,,,,,,,,,,,,,,0,0,0,0,,,,,,,,,0,44,44,25,,,0.006302922067334293,0.010413844155664265,5695.890341626382,None,0.006200606069796777,0.01264202358561306,-12.0,-103.0,1,0,0,13.051530698648094,click_1,0.006200606069796777,None,5705.394734799499,None,5705.394734799499,None,0.0053987565561328665,0.011014910552148649,5718.446515675196,None,0.0061261944347279496,0.01246561669267976,-3.0,5.0,1,0,0,2.0831806611859065,click_2,0.0061261944347279496,None,5718.948264348616,None,5718.948264348616,None,5718.948264348616,None,0.005290346502079046,0.010788468250211736,,,01,001,moebius,56,m,8,1,aurora,2022_Jun_24_1543,CPO_EEG,2020.1.3,144.086735094303,
stimoli/01.full/F01-Surprise-Face Forward.mp4,surprised,full,femmina,1,6,720,576,49,,,,,,,,,,,,,,,,,0,0,0,0,,,,,,,,,0,45,45,48,,,0.005029200151511759,0.00911318009639217,5722.631081547454,None,0.006216322320142353,0.01264972134049458,45.0,-202.0,1,0,0,6.236507438597073,click_1,0.006216322320142353,None,5728.651846563209,None,5728.651846563209,None,0.005276554690681223,0.010782053454022389,5734.888584292987,None,0.0061152892812970094,0.012427127916453173,-4.0,1.0,1,0,0,8.55687903490707,click_2,0.0061152892812970094,None,5735.390243800741,None,5735.390243800741,None,5735.390243800741,None,0.005284573185235786,0.010785581591335358,,,01,001,moebius,56,m,8,1,aurora,2022_Jun_24_1543,CPO_EEG,2020.1.3,144.086735094303,
stimoli/01.full/M02-Joy-Face Forward.mp4,happy,full,maschio,3,6,720,576,43,,,,,,,,,,,,,,,,,0,0,0,0,,,,,,,,,0,46,46,42,,,0.005460146154291579,0.008950115979132534,5745.566110567992,None,0.0061945120123709785,0.012577234144373506,166.0,103.0,1,0,0,4.473428952283939,click_1,0.0061945120123709785,None,5751.592690275682,None,5751.592690275682,None,0.005403246912464965,0.011011703153599228,5756.066386404224,None,0.0060498583616208634,0.012311340846281382,138.0,23.0,1,0,0,1.8321597463846047,click_2,0.0060498583616208634,None,5756.568119040654,None,5756.568119040654,None,5756.568119040654,None,0.005417680204118369,0.01103832455828524,,,01,001,moebius,56,m,8,1,aurora,2022_Jun_24_1543,CPO_EEG,2020.1.3,144.086735094303,
stimoli/01.full/F01-Joy-Face Forward.mp4,happy,full,femmina,1,6,720,576,41,,,,,,,,,,,,,,,,,0,0,0,0,,,,,,,,,0,47,47,40,,,0.00037192987747403095,0.00398217712972837,5760.024648533321,None,0.006201889029398444,0.012643306545214728,183.0,110.0,1,0,0,5.965068227771553,click_1,0.006201889029398444,None,5766.04890448112,None,5766.04890448112,None,0.005377908468290116,0.010961667743686121,5772.0141888875205,None,0.006104063388193026,0.012444447865163966,-5.0,6.0,1,0,0,1.4910285868973006,click_2,0.006104063388193026,None,5772.515947824614,None,5772.515947824614,None,5772.515947824614,None,0.005327873058377008,0.010906821237767872,,,01,001,moebius,56,m,8,1,aurora,2022_Jun_24_1543,CPO_EEG,2020.1.3,144.086735094303,
stimoli/01.full/M02-Neutral-Face Forward.mp4,neutral,full,maschio,3,6,720,576,55,,,,,,,,,,,,,,,,,0,0,0,0,,,,,,,,,0,48,48,54,,,0.0018902479696407681,0.005881534110812936,5775.623398225411,None,0.006210549004208588,0.012635608790333208,0.0,0.0,1,0,0,3.9926249089103294,click_1,0.006210549004208588,None,5781.649808582484,None,5781.649808582484,None,0.005307987191372376,0.010838824398888391,5785.642666348493,None,0.006174946885948884,0.012600327411746548,2.0,10.0,1,0,0,8.97500282250985,click_2,0.006174946885948884,None,5786.144394173825,None,5786.144394173825,None,5786.144394173825,None,0.0052662910165963694,0.010772751998956664,,,01,001,moebius,56,m,8,1,aurora,2022_Jun_24_1543,CPO_EEG,2020.1.3,144.086735094303,
stimoli/02.subtle/JM2_Anger.mp4,angry,subtle,maschio,8,10,1646,926,8,,,,,,,,,,,,,,,,,0,0,0,0,,,,,,,,,0,49,49,7,,,0.005671577833709307,0.009042232451065502,5796.744650060043,None,0.006186814258398954,0.012564725293486845,34.0,149.0,1,0,0,4.536178808592922,click_1,0.006186814258398954,None,5807.73122453326,None,5807.73122453326,None,0.005386247703427216,0.010973214377372642,5812.2676580092575,None,0.0061383825459415675,0.012503463988650765,-13.0,67.0,1,0,0,3.024453523518787,click_2,0.0061383825459415675,None,5812.769377816096,None,5812.769377816096,None,5812.769377816096,None,0.005179691268494935,0.010475746938027442,,,01,001,moebius,56,m,8,1,aurora,2022_Jun_24_1543,CPO_EEG,2020.1.3,144.086735094303,
stimoli/02.subtle/JM2_Disgust.mp4,disgusted,subtle,maschio,8,10,1646,926,12,,,,,,,,,,,,,,,,,0,0,0,0,,,,,,,,,0,50,50,11,,,0.0027877420934601105,0.006744709075974242,5817.41588630672,None,0.006221454157639528,0.012638816188882629,-79.0,-55.0,1,0,0,3.205506974166383,click_1,0.006221454157639528,None,5828.037735679609,None,5828.037735679609,None,0.005282328006614989,0.010769544600407244,5831.243429324342,None,0.005960692695225589,0.012121462881623302,-74.0,49.0,1,0,0,3.2539152708068286,click_2,0.005960692695225589,None,5831.745249201999,None,5831.745249201999,None,5831.745249201999,None,0.005298044256960566,0.010788147509629198,,,01,001,moebius,56,m,8,1,aurora,2022_Jun_24_1543,CPO_EEG,2020.1.3,144.086735094303,
stimoli/02.subtle/JM1_Neutral.mp4,neutral,subtle,maschio,7,10,1646,926,27,,,,,,,,,,,,,,,,,0,0,0,0,,,,,,,,,0,51,51,26,,,0.004422873621479084,0.007981161024872563,5836.721458647658,None,0.0062346044896912645,0.012663833893384435,63.0,-10.0,1,0,0,5.349958881156454,click_1,0.0062346044896912645,None,5847.1422506697045,None,5847.1422506697045,None,0.005397152856858156,0.011000798000168288,5852.492444011659,None,0.006001426650072972,0.012203251531900605,1.0,3.0,1,0,0,1.4051306180781467,click_2,0.006001426650072972,None,5852.993352346789,None,5852.993352346789,None,5852.993352346789,None,0.004961267462022079,0.010131913867553521,,,01,001,moebius,56,m,8,1,aurora,2022_Jun_24_1543,CPO_EEG,2020.1.3,144.086735094303,
stimoli/01.full/F03-Anger-Face Forward.mp4,angry,full,femmina,2,6,720,576,34,,,,,,,,,,,,,,,,,0,0,0,0,,,,,,,,,0,52,52,33,,,0.0020151440494373674,0.00565425788408902,5855.991366967392,None,0.006221774897312571,0.012661909453527187,-22.0,135.0,1,0,0,2.940423222587924,click_1,0.006221774897312571,None,5862.016331429421,None,5862.016331429421,None,0.005413510587459314,0.01107200223759719,5864.957005470538,None,0.006101176730226143,0.01241526054309361,17.0,95.0,1,0,0,5.860656195152842,click_2,0.006101176730226143,None,5865.458721749238,None,5865.458721749238,None,5865.458721749238,None,0.005282648747197527,0.010807391898197238,,,01,001,moebius,56,m,8,1,aurora,2022_Jun_24_1543,CPO_EEG,2020.1.3,144.086735094303,
stimoli/02.subtle/JF2_Happiness.mp4,happy,subtle,femmina,6,9,1646,926,14,,,,,,,,,,,,,,,,,0,0,0,0,,,,,,,,,0,53,53,13,,,0.005707500691642053,0.009874872986074479,5872.945741730045,None,0.006217284539161483,0.012673135345721676,161.0,99.0,1,0,0,4.50139874629167,click_1,0.006217284539161483,None,5882.448987937617,None,5882.448987937617,None,0.005408378749962139,0.011003043178789085,5886.95058297667,None,0.0061512121401392506,0.012521425419436127,102.0,-21.0,1,0,0,5.658043256253222,click_2,0.0061512121401392506,None,5887.452327159734,None,5887.452327159734,None,5887.452327159734,None,0.005267894714961585,0.010768582381388114,,,01,001,moebius,56,m,8,1,aurora,2022_Jun_24_1543,CPO_EEG,2020.1.3,144.086735094303,
stimoli/02.subtle/JF1_Fear.mp4,fear,subtle,femmina,5,10,1646,926,1,,,,,,,,,,,,,,,,,0,0,0,0,,,,,,,,,0,54,54,0,,,0.004746564234665129,0.008267004341178108,5894.73684870575,None,0.006230755610886263,0.012682436799877905,-55.0,-89.0,1,0,0,2.68965697519252,click_1,0.006230755610886263,None,5905.56297822305,None,5905.56297822305,None,0.0053567396416838164,0.010931197462923592,5908.252867413862,None,0.0061152892812970094,0.012438995288903243,-2.0,1.0,1,0,0,9.70748658024695,click_2,0.0061152892812970094,None,5908.754524355698,None,5908.754524355698,None,5908.754524355698,None,0.005251536985269922,0.010714377353906457,,,01,001,moebius,56,m,8,1,aurora,2022_Jun_24_1543,CPO_EEG,2020.1.3,144.086735094303,
stimoli/02.subtle/JM1_Anger.mp4,angry,subtle,maschio,7,10,1646,926,7,,,,,,,,,,,,,,,,,0,0,0,0,,,,,,,,,0,55,55,6,,,0.0038104530385680846,0.007773514076689025,5920.0696791190685,None,0.0062083038237688015,0.012653570217480592,-78.0,-57.0,1,0,0,1.9160819580010866,click_1,0.0062083038237688015,None,5930.495598166908,None,5930.495598166908,None,0.005421529082013876,0.011049550451389223,5932.411917472365,None,0.0060803286423833924,0.012381903602545208,-61.0,-14.0,1,0,0,5.657912715152634,click_2,0.0060803286423833924,None,5932.913665825045,None,5932.913665825045,None,5932.913665825045,None,0.005285214664581872,0.010784940111079777,,,01,001,moebius,56,m,8,1,aurora,2022_Jun_24_1543,CPO_EEG,2020.1.3,144.086735094303,
,,,,,,,,,,,,,,,,,,,,,,,,,0,0,0,0,,,,,,,,,,,,,,,,,,,,,,,,,,,,,,,,,,,,,,,,,,,,,,,,,,,,,,,,,,,01,001,moebius,56,m,8,1,aurora,2022_Jun_24_1543,CPO_EEG,2020.1.3,144.086735094303,
,,,,,,,,,,,,,,,,,,,,,,,,,1,0,1,0,,,,,0,0,0,0,,,,,,,,,,,,,,,,,,,,,,,,,,,,,,,,,,,,,,,,,,,,,,,,,,,01,001,moebius,56,m,8,1,aurora,2022_Jun_24_1543,CPO_EEG,2020.1.3,144.086735094303,
stimoli/02.subtle/JF1_Neutral.mp4,neutral,subtle,femmina,5,10,1646,926,25,,,,,,,,,,,,,,,,,1,0,1,0,,,,,,,,,0,0,0,24,,,0.0029270714649101137,0.00648824552717997,5952.580473296487,None,0.005937599430581031,0.01215032946493011,-15.0,-92.0,1,0,0,6.571139447403766,click_1,0.005937599430581031,None,5963.406610190802,None,5963.406610190802,None,0.004570927117129031,0.009322366598098597,5969.978233955312,None,0.005823736798447499,0.011894379099430807,3.0,9.0,1,0,0,2.0064552093281236,click_2,0.005823736798447499,None,5970.480014381973,None,5970.480014381973,None,5970.480014381973,None,0.004431726041730144,0.009055190339495311,,,01,001,moebius,56,m,8,1,aurora,2022_Jun_24_1543,CPO_EEG,2020.1.3,144.086735094303,
stimoli/02.subtle/JM2_Neutral.mp4,neutral,subtle,maschio,8,10,1646,926,28,,,,,,,,,,,,,,,,,1,0,1,0,,,,,,,,,0,1,1,27,,,0.0028906995703437133,0.006821045148171834,5974.0748879335115,None,0.006231717830814887,0.012710341164165584,-7.0,-64.0,1,0,0,9.999803707239153,click_1,0.006231717830814887,None,5985.0607176489,None,5985.0607176489,None,0.0053811158668395365,0.01098700618967996,5995.06073464811,None,0.0061191381591925165,0.01245374932022969,0.0,3.0,1,0,0,0.9404119966957296,click_2,0.0061191381591925165,None,5995.562522772526,None,5995.562522772526,None,5995.562522772526,None,0.005323061961462372,0.010858068786546937,,,01,001,moebius,56,m,8,1,aurora,2022_Jun_24_1543,CPO_EEG,2020.1.3,144.086735094303,
stimoli/01.full/F03-Surprise-Face Forward.mp4,surprised,full,femmina,2,6,720,576,50,,,,,,,,,,,,,,,,,1,0,1,0,,,,,,,,,0,2,2,49,,,0.0007587420832351199,0.00447066385368089,5998.09292505722,None,0.0062028512484175735,0.012629835472580453,51.0,-184.0,1,0,0,1.4491463830809153,click_1,0.0062028512484175735,None,6004.114808813417,None,6004.114808813417,None,0.005409020229308226,0.011057248206270742,6005.564220769057,None,0.006104704868448607,0.012421996079865494,74.0,-124.0,1,0,0,6.201425880879469,click_2,0.006104704868448607,None,6006.065911709312,None,6006.065911709312,None,6006.065911709312,None,0.005290667240842595,0.010780449753838184,,,01,001,moebius,56,m,8,1,aurora,2022_Jun_24_1543,CPO_EEG,2020.1.3,144.086735094303,
stimoli/02.subtle/JM1_Neutral.mp4,neutral,subtle,maschio,7,10,1646,926,27,,,,,,,,,,,,,,,,,1,0,1,0,,,,,,,,,0,3,3,26,,,0.004117208588468202,0.008859025874699,6013.855567016658,None,0.006113364842349256,0.012468503350646643,-6.0,-65.0,1,0,0,18.92657784739913,click_1,0.006113364842349256,None,6024.279092704068,None,6024.279092704068,None,0.005373097370465985,0.010934084120890475,6043.205953443976,None,0.006047292442417529,0.012312623804973555,1.0,7.0,1,0,0,0.8357000723590318,click_2,0.006047292442417529,None,6043.707685438926,None,6043.707685438926,None,6043.707685438926,None,0.00541158614851156,0.011025174226233503,,,01,001,moebius,56,m,8,1,aurora,2022_Jun_24_1543,CPO_EEG,2020.1.3,144.086735094303,
stimoli/02.subtle/JF1_Surprise.mp4,surprised,subtle,femmina,5,10,1646,926,21,,,,,,,,,,,,,,,,,1,0,1,0,,,,,,,,,0,4,4,20,,,0.004739379662169085,0.008605898018686275,6046.156904629943,None,0.0062233785956777865,0.012655815397010883,26.0,-144.0,1,0,0,2.835995473719777,click_1,0.0062233785956777865,None,6056.981297982675,None,6056.981297982675,None,0.005389775840740185,0.010992138025358145,6059.817523747575,None,0.006106308566813823,0.012455353018594906,67.0,-15.0,1,0,0,16.628230170582356,click_2,0.006106308566813823,None,6060.319295514261,None,6060.319295514261,None,6060.319295514261,None,0.005268536194307671,0.010747734293545363,,,01,001,moebius,56,m,8,1,aurora,2022_Jun_24_1543,CPO_EEG,2020.1.3,144.086735094303,
stimoli/02.subtle/JF1_Sadness.mp4,sad,subtle,femmina,5,10,1646,926,17,,,,,,,,,,,,,,,,,1,0,1,0,,,,,,,,,0,5,5,16,,,0.0043575709978540544,0.008411080661062442,6078.547872981905,None,0.0062166430598153966,0.012646513942854654,-49.0,-79.0,1,0,0,12.23616360552569,click_1,0.0062166430598153966,None,6089.370778743419,None,6089.370778743419,None,0.00539137954092439,0.011000798001077783,6101.607178734181,None,0.006110478184382373,0.012434184191079112,-54.0,-39.0,1,0,0,9.749102570023751,click_2,0.006110478184382373,None,6102.108838241935,None,6102.108838241935,None,6102.108838241935,None,0.005294195379974553,0.010821825189850642,,,01,001,moebius,56,m,8,1,aurora,2022_Jun_24_1543,CPO_EEG,2020.1.3,144.086735094303,
stimoli/02.subtle/JM2_Surprise.mp4,surprised,subtle,maschio,8,10,1646,926,24,,,,,,,,,,,,,,,,,1,0,1,0,,,,,,,,,0,6,6,23,,,0.005638156745590095,0.009408453161086072,6113.443197301167,None,0.006207020865986124,0.012638495448300091,14.0,-98.0,1,0,0,3.30300578101469,click_1,0.006207020865986124,None,6124.4273691125,None,6124.4273691125,None,0.005378549947636202,0.010955252948406269,6127.730589468444,None,0.006087064179155277,0.012420392380590783,4.0,0.0,1,0,0,8.508526226251888,click_2,0.006087064179155277,None,6128.232336217426,None,6128.232336217426,None,6128.232336217426,None,0.005303496833221288,0.010830164424078248,,,01,001,moebius,56,m,8,1,aurora,2022_Jun_24_1543,CPO_EEG,2020.1.3,144.086735094303,
stimoli/01.full/F03-Fear-Face Forward.mp4,fear,full,femmina,2,6,720,576,30,,,,,,,,,,,,,,,,,1,0,1,0,,,,,,,,,0,7,7,29,,,0.0026584198049022234,0.006397925198143639,6138.322117062331,None,0.006238132627004234,0.012668644989389577,-104.0,-154.0,1,0,0,2.724397265757034,click_1,0.006238132627004234,None,6144.348743277294,None,6144.348743277294,None,0.005403246912464965,0.011011382413926185,6147.073375966068,None,0.00609412045469071,0.01243290123238694,-4.0,-6.0,1,0,0,13.575062095226713,click_2,0.00609412045469071,None,6147.575126243188,None,6147.575126243188,None,6147.575126243188,None,0.005263404356810497,0.01074164023702906,,,01,001,moebius,56,m,8,1,aurora,2022_Jun_24_1543,CPO_EEG,2020.1.3,144.086735094303,
stimoli/02.subtle/JM1_Happiness.mp4,happy,subtle,maschio,7,10,1646,926,15,,,,,,,,,,,,,,,,,1,0,1,0,,,,,,,,,0,8,8,14,,,0.0030549183511539013,0.006870118339065812,6162.737984124662,None,0.006202851249327068,0.012624703637811763,108.0,-19.0,1,0,0,3.5813543687327183,click_1,0.006202851249327068,None,6173.162118576223,None,6173.162118576223,None,0.005491771099514153,0.01120735443510057,6176.743848852008,None,0.006109836705036287,0.01245695671877911,58.0,37.0,1,0,0,4.717234183678556,click_2,0.006109836705036287,None,6177.245582129917,None,6177.245582129917,None,6177.245582129917,None,0.005309911629410635,0.010828560724803538,,,01,001,moebius,56,m,8,1,aurora,2022_Jun_24_1543,CPO_EEG,2020.1.3,144.086735094303,
stimoli/02.subtle/JF2_Sadness.mp4,sad,subtle,femmina,6,8,1646,926,18,,,,,,,,,,,,,,,,,1,0,1,0,,,,,,,,,0,9,9,17,,,0.002711983351218805,0.0063417957308047335,6183.645964836654,None,0.00615377805843309,0.012501218810939463,-113.0,-83.0,1,0,0,6.299480850550026,click_1,0.00615377805843309,None,6192.032798531782,None,6192.032798531782,None,0.0053461552279259195,0.010903613839218451,6198.332585688846,None,0.0061124026233301265,0.012415581283676147,-94.0,-17.0,1,0,0,2.5085268677321437,click_2,0.0061124026233301265,None,6198.834335645226,None,6198.834335645226,None,6198.834335645226,None,0.005298685736306652,0.010797448963785428,,,01,001,moebius,56,m,8,1,aurora,2022_Jun_24_1543,CPO_EEG,2020.1.3,144.086735094303,
stimoli/02.subtle/JM2_Fear.mp4,fear,subtle,maschio,8,10,1646,926,4,,,,,,,,,,,,,,,,,1,0,1,0,,,,,,,,,0,10,10,3,,,0.0015913184697637917,0.0056063393558360985,6202.925531914893,None,0.006173022447001131,0.012541632027023297,-77.0,-62.0,1,0,0,14.299681312929351,click_1,0.006173022447001131,None,6213.552557386766,None,6213.552557386766,None,0.005349683366148383,0.010933121901871345,6227.852569703175,None,0.006099573030951433,0.012435146411007736,0.0,1.0,1,0,0,0.9752177181799198,click_2,0.006099573030951433,None,6228.354347563917,None,6228.354347563917,None,6228.354347563917,None,0.005330759716343891,0.010869936159906501,,,01,001,moebius,56,m,8,1,aurora,2022_Jun_24_1543,CPO_EEG,2020.1.3,144.086735094303,
stimoli/02.subtle/JF1_Fear.mp4,fear,subtle,femmina,5,10,1646,926,1,,,,,,,,,,,,,,,,,1,0,1,0,,,,,,,,,0,11,11,0,,,0.001018477177240129,0.004673307262237358,6230.912464654473,None,0.00619002165603888,0.012580120803249883,-15.0,100.0,1,0,0,4.898752386303386,click_1,0.00619002165603888,None,6241.734299786515,None,6241.734299786515,None,0.005419604643975617,0.011067191140682553,6246.633366818569,None,0.00612106259814027,0.012461767815693747,-91.0,17.0,1,0,0,6.89921842124204,click_2,0.00612106259814027,None,6247.135127359362,None,6247.135127359362,None,6247.135127359362,None,0.005237103693616518,0.010704113679821603,,,01,001,moebius,56,m,8,1,aurora,2022_Jun_24_1543,CPO_EEG,2020.1.3,144.086735094303,
stimoli/02.subtle/JM1_Anger.mp4,angry,subtle,maschio,7,10,1646,926,7,,,,,,,,,,,,,,,,,1,0,1,0,,,,,,,,,0,12,12,6,,,0.004642901129955135,0.008401650911764591,6255.620434589607,None,0.006189700916365837,0.01258332820088981,-120.0,-87.0,1,0,0,2.2785679737462488,click_1,0.006189700916365837,None,6266.043908317168,None,6266.043908317168,None,0.005349683365238889,0.010887256108617294,6268.322692790282,None,0.006134854409538093,0.01251853876055975,0.0,4.0,1,0,0,2.6686680830534897,click_2,0.006134854409538093,None,6268.824456538473,None,6268.824456538473,None,6268.824456538473,None,0.005253461424217676,0.010746772074526234,,,01,001,moebius,56,m,8,1,aurora,2022_Jun_24_1543,CPO_EEG,2020.1.3,144.086735094303,
stimoli/02.subtle/JF1_Happiness.mp4,happy,subtle,femmina,5,10,1646,926,13,,,,,,,,,,,,,,,,,1,0,1,0,,,,,,,,,0,13,13,12,,,0.001124000574236561,0.0048968629071168834,6273.075879019511,None,0.00622786895291938,0.01265485317708226,171.0,122.0,1,0,0,1.943905173917301,click_1,0.00622786895291938,None,6283.9007691982015,None,6283.9007691982015,None,0.005414472806478443,0.011044418614801543,6285.844918455112,None,0.00603959468753601,0.012293700156988052,134.0,-36.0,1,0,0,1.64397336320053,click_2,0.00603959468753601,None,6286.3466623174345,None,6286.3466623174345,None,6286.3466623174345,None,0.005433396454463946,0.011073605935962405,,,01,001,moebius,56,m,8,1,aurora,2022_Jun_24_1543,CPO_EEG,2020.1.3,144.086735094303,
stimoli/01.full/M02-Sadness-Face Forward.mp4,sad,full,maschio,3,6,720,576,47,,,,,,,,,,,,,,,,,1,0,1,0,,,,,,,,,0,14,14,46,,,0.004738481590720767,0.008685505638823088,6289.577081793782,None,0.006207341605659167,0.01265036282075016,-31.0,144.0,1,0,0,5.044769503545467,click_1,0.006207341605659167,None,6295.244372620111,None,6295.244372620111,None,0.005418321683464455,0.011052757848119654,6300.289396149583,None,0.00613613736913976,0.012467861872210051,23.0,105.0,1,0,0,10.375582463487262,click_2,0.00613613736913976,None,6300.791126220094,None,6300.791126220094,None,6300.791126220094,None,0.0052961198171033175,0.010791675646942167,,,01,001,moebius,56,m,8,1,aurora,2022_Jun_24_1543,CPO_EEG,2020.1.3,144.086735094303,
stimoli/02.subtle/JF2_Neutral.mp4,neutral,subtle,femmina,6,9,1646,926,26,,,,,,,,,,,,,,,,,1,0,1,0,,,,,,,,,0,15,15,25,,,0.003878385728057765,0.0074122969062955235,6312.766995360819,None,0.006149929180537583,0.01251340692397207,-12.0,-63.0,1,0,0,5.832254043887588,click_1,0.006149929180537583,None,6322.2723924495285,None,6322.2723924495285,None,0.005417359464445326,0.011021325348337996,6328.104945422914,None,0.0061290810926948325,0.012453428579647152,-1.0,5.0,1,0,0,3.6928207526352708,click_2,0.0061290810926948325,None,6328.606665229752,None,6328.606665229752,None,6328.606665229752,None,0.005310232369083678,0.010807712636960787,,,01,001,moebius,56,m,8,1,aurora,2022_Jun_24_1543,CPO_EEG,2020.1.3,144.086735094303,
stimoli/02.subtle/JF1_Anger.mp4,angry,subtle,femmina,5,10,1646,926,5,,,,,,,,,,,,,,,,,1,0,1,0,,,,,,,,,0,16,16,4,,,0.0049120018256871845,0.00842378195739002,6333.884993610863,None,0.006211511223227717,0.01261251552386966,-24.0,135.0,1,0,0,4.989330269626407,click_1,0.006211511223227717,None,6344.711929147294,None,6344.711929147294,None,0.005338457472134905,0.010909387156061712,6349.701531404276,None,0.0060957241539654206,0.012407562789121585,24.0,100.0,1,0,0,2.034678708521824,click_2,0.0060957241539654206,None,6350.203248965935,None,6350.203248965935,None,6350.203248965935,None,0.005316326425599982,0.010840428098163102,,,01,001,moebius,56,m,8,1,aurora,2022_Jun_24_1543,CPO_EEG,2020.1.3,144.086735094303,
stimoli/02.subtle/JM1_Sadness.mp4,sad,subtle,maschio,7,10,1646,926,19,,,,,,,,,,,,,,,,,1,0,1,0,,,,,,,,,0,17,17,18,,,0.0014534003548760666,0.0052185649328748696,6353.820515608481,None,0.006208624565260834,0.012621496238352847,18.0,-97.0,1,0,0,2.0134928821416906,click_1,0.006208624565260834,None,6364.241344515606,None,6364.241344515606,None,0.0055097325284805265,0.011259955763307516,6366.255235756586,None,0.006125873695054906,0.01248999291783548,1.0,-3.0,1,0,0,2.8845314248028444,click_2,0.006125873695054906,None,6366.756938243475,None,6366.756938243475,None,6366.756938243475,None,0.005225877800512535,0.010694170746319287,,,01,001,moebius,56,m,8,1,aurora,2022_Jun_24_1543,CPO_EEG,2020.1.3,144.086735094303,
stimoli/02.subtle/JM1_Fear.mp4,fear,subtle,maschio,7,10,1646,926,3,,,,,,,,,,,,,,,,,1,0,1,0,,,,,,,,,0,18,18,2,,,0.004603706724992662,0.00797211616372806,6371.220417205509,None,0.00620926604460692,0.012653890958972625,-54.0,-76.0,1,0,0,6.786997657316533,click_1,0.00620926604460692,None,6381.643060858453,None,6381.643060858453,None,0.005383681785133376,0.011007212796357635,6388.430314786875,None,0.006084818999624986,0.012379658424833906,0.0,1.0,1,0,0,3.818393914668377,click_2,0.006084818999624986,None,6388.932007972308,None,6388.932007972308,None,6388.932007972308,None,0.0052589140004783985,0.010715660313508124,,,01,001,moebius,56,m,8,1,aurora,2022_Jun_24_1543,CPO_EEG,2020.1.3,144.086735094303,
stimoli/02.subtle/JM1_Surprise.mp4,surprised,subtle,maschio,7,10,1646,926,23,,,,,,,,,,,,,,,,,1,0,1,0,,,,,,,,,0,19,19,22,,,0.003644694706053997,0.007399916349640989,6394.33074752902,None,0.0062227371163317,0.012658702055887261,23.0,-96.0,1,0,0,4.257570742372081,click_1,0.0062227371163317,None,6404.756961016001,None,6404.756961016001,None,0.00538560622408113,0.010959422565974819,6409.014722919296,None,0.00606814053026028,0.012380941384435573,0.0,0.0,1,0,0,3.3513685326024643,click_2,0.00606814053026028,None,6409.516497572641,None,6409.516497572641,None,6409.516497572641,None,0.005254744382909848,0.010700906282181677,,,01,001,moebius,56,m,8,1,aurora,2022_Jun_24_1543,CPO_EEG,2020.1.3,144.086735094303,
stimoli/01.full/M02-Disgust-Face Forward.mp4,disgusted,full,maschio,3,6,720,576,39,,,,,,,,,,,,,,,,,1,0,1,0,,,,,,,,,0,20,20,38,,,0.00410976742477942,0.007774861182952009,6414.44751510043,None,0.006229472653103585,0.012681153843004722,-153.0,99.0,1,0,0,4.048379109318375,click_1,0.006229472653103585,None,6420.473328560725,None,6420.473328560725,None,0.005349683365238889,0.010922216748440405,6424.521931546427,None,0.006019388079039345,0.012268682451576751,-70.0,113.0,1,0,0,5.685857491454954,click_2,0.006019388079039345,None,6425.023679257628,None,6425.023679257628,None,6425.023679257628,None,0.005196690477532684,0.010614948013426329,,,01,001,moebius,56,m,8,1,aurora,2022_Jun_24_1543,CPO_EEG,2020.1.3,144.086735094303,
stimoli/01.full/F01-Surprise-Face Forward.mp4,surprised,full,femmina,1,6,720,576,49,,,,,,,,,,,,,,,,,1,0,1,0,,,,,,,,,0,21,21,48,,,0.005699097309843637,0.009193236751343647,6432.294348051441,None,0.006227227474482788,0.01268917233846878,53.0,-201.0,1,0,0,2.4526405225233248,click_1,0.006227227474482788,None,6438.319683930165,None,6438.319683930165,None,0.005402605433118879,0.011015552031494735,6440.772533575043,None,0.006109515964453749,0.012461126335438166,-1.0,1.0,1,0,0,9.617017106977983,click_2,0.006109515964453749,None,6441.274305341729,None,6441.274305341729,None,6441.274305341729,None,0.0049359290169377346,0.01010849986141693,,,01,001,moebius,56,m,8,1,aurora,2022_Jun_24_1543,CPO_EEG,2020.1.3,144.086735094303,
stimoli/01.full/M03-Fear-Face Forward.mp4,fear,full,maschio,4,6,720,576,32,,,,,,,,,,,,,,,,,1,0,1,0,,,,,,,,,0,22,22,31,,,0.004258975581251434,0.008364124352738145,6452.478218239062,None,0.006165324691210117,0.012548046823212644,-120.0,-168.0,1,0,0,3.6929038242451497,click_1,0.006165324691210117,None,6458.501675544744,None,6458.501675544744,None,0.005401963952863298,0.010987326928443508,6462.194851997824,None,0.006101176730226143,0.01240852500723122,-78.0,54.0,1,0,0,9.225727052990806,click_2,0.006101176730226143,None,6462.696534278104,None,6462.696534278104,None,6462.696534278104,None,0.0052938746393920155,0.010830805903424334,,,01,001,moebius,56,m,8,1,aurora,2022_Jun_24_1543,CPO_EEG,2020.1.3,144.086735094303,
stimoli/02.subtle/JM2_Sadness.mp4,sad,subtle,maschio,8,10,1646,926,20,,,,,,,,,,,,,,,,,1,0,1,0,,,,,,,,,0,23,23,19,,,0.0036479662521742284,0.007074108855704253,6473.509010222619,None,0.006239415586605901,0.012693021215454792,-159.0,-112.0,1,0,0,3.741915432459791,click_1,0.006239415586605901,None,6484.134606477917,None,6484.134606477917,None,0.005396190636929532,0.010976421775012568,6487.876714675001,None,0.00611015744470933,0.01243707084995549,1.0,7.0,1,0,0,4.682886478635737,click_2,0.00611015744470933,None,6488.378460782503,None,6488.378460782503,None,6488.378460782503,None,0.005260196960080066,0.010766016463094275,,,01,001,moebius,56,m,8,1,aurora,2022_Jun_24_1543,CPO_EEG,2020.1.3,144.086735094303,
stimoli/01.full/F01-Fear-Face Forward.mp4,fear,full,femmina,1,6,720,576,29,,,,,,,,,,,,,,,,,1,0,1,0,,,,,,,,,0,24,24,28,,,0.0034102339086530264,0.007590435794554651,6494.642457546879,None,0.006189380176692794,0.012564404552904307,-116.0,-160.0,1,0,0,2.111102664963255,click_1,0.006189380176692794,None,6500.6651527747845,None,6500.6651527747845,None,0.005426660918601556,0.01104762601244147,6502.77654635075,None,0.006108553746344114,0.01243193901336781,-12.0,-66.0,1,0,0,6.264015367285538,click_2,0.006108553746344114,None,6503.27827962866,None,6503.27827962866,None,6503.27827962866,None,0.005397152856858156,0.011024212006304879,,,01,001,moebius,56,m,8,1,aurora,2022_Jun_24_1543,CPO_EEG,2020.1.3,144.086735094303,
stimoli/02.subtle/JM2_Disgust.mp4,disgusted,subtle,maschio,8,10,1646,926,12,,,,,,,,,,,,,,,,,1,0,1,0,,,,,,,,,0,25,25,11,,,0.003994685982434021,0.007287080086825881,6511.128651301947,None,0.006203813467436703,0.012618288839803427,-119.0,86.0,1,0,0,3.706843176196344,click_1,0.006203813467436703,None,6521.750558408002,None,6521.750558408002,None,0.005404529872976127,0.010995666163580609,6525.457631233899,None,0.006123949256107153,0.012472672968215193,-57.0,83.0,1,0,0,3.0029152040933695,click_2,0.006123949256107153,None,6525.959513014338,None,6525.959513014338,None,6525.959513014338,None,0.005303176093548245,0.010826957025528827,,,01,001,moebius,56,m,8,1,aurora,2022_Jun_24_1543,CPO_EEG,2020.1.3,144.086735094303,
stimoli/01.full/M03-Sadness-Face Forward.mp4,sad,full,maschio,4,6,720,576,48,,,,,,,,,,,,,,,,,1,0,1,0,,,,,,,,,0,26,26,47,,,0.00526577783148241,0.008870572506566532,6530.547693367614,None,0.006221454157639528,0.012630476953745529,-19.0,-100.0,1,0,0,14.43945490911483,click_1,0.006221454157639528,None,6536.569792019481,None,6536.569792019481,None,0.005361229998015915,0.010961988483359164,6551.00950384118,None,0.00611272336300317,0.012424561998159334,1.0,2.0,1,0,0,12.042197491044135,click_2,0.00611272336300317,None,6551.511224930977,None,6551.511224930977,None,6551.511224930977,None,0.005267573976198037,0.010771469040264492,,,01,001,moebius,56,m,8,1,aurora,2022_Jun_24_1543,CPO_EEG,2020.1.3,144.086735094303,
stimoli/01.full/F01-Disgust-Face Forward.mp4,disgusted,full,femmina,1,6,720,576,37,,,,,,,,,,,,,,,,,1,0,1,0,,,,,,,,,0,27,27,36,,,0.0019867906521540135,0.00599764192065777,6565.135685125884,None,0.006208303825587791,0.012653570219299581,-29.0,148.0,1,0,0,4.529180586774601,click_1,0.006208303825587791,None,6571.15928644374,None,6571.15928644374,None,0.00540741653094301,0.011032551241441979,6575.688718811261,None,0.006051462059986079,0.012319038601162902,-58.0,84.0,1,0,0,8.173456728351084,click_2,0.006051462059986079,None,6576.190427712945,None,6576.190427712945,None,6576.190427712945,None,0.005292270940117305,0.010791675646942167,,,01,001,moebius,56,m,8,1,aurora,2022_Jun_24_1543,CPO_EEG,2020.1.3,144.086735094303,
stimoli/02.subtle/JF2_Surprise.mp4,surprised,subtle,femmina,6,10,1646,926,22,,,,,,,,,,,,,,,,,1,0,1,0,,,,,,,,,0,28,28,21,,,0.004965629521393566,0.0090172147456542,6585.956912135254,None,0.006191946094986633,0.01257402674673358,25.0,-133.0,1,0,0,4.466607137358551,click_1,0.006191946094986633,None,6596.378075573996,None,6596.378075573996,None,0.0052932331591364346,0.010800335620842816,6600.844972339399,None,0.006117213720244763,0.012449258962988097,0.0,0.0,1,0,0,3.072788050005329,click_2,0.006117213720244763,None,6601.346657827077,None,6601.346657827077,None,6601.346657827077,None,0.005241594050858112,0.01071116995626653,,,01,001,moebius,56,m,8,1,aurora,2022_Jun_24_1543,CPO_EEG,2020.1.3,144.086735094303,
stimoli/01.full/M02-Surprise-Face Forward.mp4,surprised,full,maschio,3,6,720,576,51,,,,,,,,,,,,,,,,,1,0,1,0,,,,,,,,,0,29,29,50,,,0.005011751905840356,0.00882631041440618,6606.005221323296,None,0.006256735536226188,0.012733113690956088,42.0,-186.0,1,0,0,5.525748350114554,click_1,0.006256735536226188,None,6612.027663808233,None,6612.027663808233,None,0.005408058009379602,0.011050833410081395,6617.553616790344,None,0.006052745019587746,0.012318397121816815,60.0,-84.0,1,0,0,2.745131811230749,click_2,0.006052745019587746,None,6618.055348143815,None,6618.055348143815,None,6618.055348143815,None,0.005247046628028329,0.010734263222730078,,,01,001,moebius,56,m,8,1,aurora,2022_Jun_24_1543,CPO_EEG,2020.1.3,144.086735094303,
stimoli/01.full/M03-Joy-Face Forward.mp4,happy,full,maschio,4,6,720,576,44,,,,,,,,,,,,,,,,,1,0,1,0,,,,,,,,,0,30,30,43,,,0.00014157454916130519,0.0037370677700891974,6622.384126009689,None,0.0062050964261288755,0.012631439171855163,172.0,102.0,1,0,0,1.7906216963792758,click_1,0.0062050964261288755,None,6628.405405492092,None,6628.405405492092,None,0.005409340968981269,0.011006892055775097,6630.196267422586,None,0.006061084253815352,0.01233603781020065,132.0,24.0,1,0,0,5.114999332860862,click_2,0.006061084253815352,None,6630.697996851618,None,6630.697996851618,None,6630.697996851618,None,0.0052727058118762216,0.010777563095871301,,,01,001,moebius,56,m,8,1,aurora,2022_Jun_24_1543,CPO_EEG,2020.1.3,144.086735094303,
stimoli/02.subtle/JF2_Anger.mp4,angry,subtle,femmina,6,9,1646,926,6,,,,,,,,,,,,,,,,,1,0,1,0,,,,,,,,,0,31,31,5,,,0.0008915283615351655,0.0047455378662562,6637.403082373679,None,0.0062143978811946,0.012663513151892403,-35.0,139.0,1,0,0,3.860337700526543,click_1,0.0062143978811946,None,6646.905748362944,None,6646.905748362944,None,0.005495299237736617,0.011195807802323543,6650.766407444756,None,0.0061124026233301265,0.012466258172025846,-108.0,24.0,1,0,0,4.292347276534201,click_2,0.0061124026233301265,None,6651.2681436093235,None,6651.2681436093235,None,6651.2681436093235,None,0.0052489710669760825,0.010732018044109282,,,01,001,moebius,56,m,8,1,aurora,2022_Jun_24_1543,CPO_EEG,2020.1.3,144.086735094303,
stimoli/01.full/F01-Joy-Face Forward.mp4,happy,full,femmina,1,6,720,576,41,,,,,,,,,,,,,,,,,1,0,1,0,,,,,,,,,0,32,32,40,,,0.005786338535472169,0.009578124517247488,6657.1454660862555,None,0.006234925229364308,0.012642985805541684,161.0,115.0,1,0,0,3.442126350955732,click_1,0.006234925229364308,None,6663.167409179317,None,6663.167409179317,None,0.00538977584164968,0.01101651425142336,6666.609802065051,None,0.0060546694585355,0.012330905974522466,2.0,1.0,1,0,0,11.121385583130177,click_2,0.0060546694585355,None,6667.111507759338,None,6667.111507759338,None,6667.111507759338,None,0.005273026552458759,0.010754469830317248,,,01,001,moebius,56,m,8,1,aurora,2022_Jun_24_1543,CPO_EEG,2020.1.3,144.086735094303,
stimoli/01.full/M02-Anger-Face Forward.mp4,angry,full,maschio,3,6,720,576,35,,,,,,,,,,,,,,,,,1,0,1,0,,,,,,,,,0,33,33,34,,,0.005307794746840955,0.009323457113168843,6679.818679373095,None,0.006219850457455323,0.012632401390874293,-189.0,39.0,1,0,0,5.720865599757417,click_1,0.006219850457455323,None,6685.8443247657315,None,6685.8443247657315,None,0.005379832907237869,0.011000798001077783,6691.5654706920795,None,0.006109515964453749,0.012431618272785272,-22.0,97.0,1,0,0,3.874168000944337,click_2,0.006109515964453749,None,6692.067115125063,None,6692.067115125063,None,6692.067115125063,None,0.0052278022394602885,0.010647984215211181,,,01,001,moebius,56,m,8,1,aurora,2022_Jun_24_1543,CPO_EEG,2020.1.3,144.086735094303,
stimoli/01.full/M03-Neutral-Face Forward.mp4,neutral,full,maschio,4,6,720,576,56,,,,,,,,,,,,,,,,,1,0,1,0,,,,,,,,,0,34,34,55,,,0.005610893862467492,0.009186180475808214,6697.526041827036,None,0.006196436452228227,0.012579479323903797,0.0,0.0,1,0,0,1.4909814381462638,click_1,0.006196436452228227,None,6703.5512936719315,None,6703.5512936719315,None,0.005390738060668809,0.010953969988804602,6705.0424903264875,None,0.006168211349177,0.012563121594212134,0.0,0.0,1,0,0,1.9300059144416082,click_2,0.006168211349177,None,6705.544164909013,None,6705.544164909013,None,6705.544164909013,None,0.005324024180481501,0.010886614629271207,,,01,001,moebius,56,m,8,1,aurora,2022_Jun_24_1543,CPO_EEG,2020.1.3,144.086735094303,
stimoli/02.subtle/JM1_Disgust.mp4,disgusted,subtle,maschio,7,10,1646,926,11,,,,,,,,,,,,,,,,,1,0,1,0,,,,,,,,,0,35,35,10,,,0.006559385616128566,0.009960831254829827,6709.064659220371,None,0.00624134002464416,0.012691096775597543,-74.0,116.0,1,0,0,2.7244113783090143,click_1,0.00624134002464416,None,6719.490910875388,None,6719.490910875388,None,0.00531247754861397,0.010843635496712523,6722.21553137605,None,0.006123949256107153,0.012485502560593886,-87.0,54.0,1,0,0,4.5522145159138745,click_2,0.006123949256107153,None,6722.717277483553,None,6722.717277483553,None,6722.717277483553,None,0.005288422063131293,0.010784619371406734,,,01,001,moebius,56,m,8,1,aurora,2022_Jun_24_1543,CPO_EEG,2020.1.3,144.086735094303,
stimoli/02.subtle/JM2_Happiness.mp4,happy,subtle,maschio,8,10,1646,926,16,,,,,,,,,,,,,,,,,1,0,1,0,,,,,,,,,0,36,36,15,,,0.003935669858037727,0.007702117395638197,6728.853821229896,None,0.006162758772916277,0.012531689092611487,149.0,-26.0,1,0,0,3.728031568494771,click_1,0.006162758772916277,None,6739.476627690366,None,6739.476627690366,None,0.005371814411773812,0.010981874352182786,6743.204975508308,None,0.006136778847576352,0.012468824090319686,50.0,31.0,1,0,0,5.65820715429345,click_2,0.006136778847576352,None,6743.706653939711,None,6743.706653939711,None,6743.706653939711,None,0.005276875429444772,0.010785902330098907,,,01,001,moebius,56,m,8,1,aurora,2022_Jun_24_1543,CPO_EEG,2020.1.3,144.086735094303,
stimoli/01.full/M03-Anger-Face Forward.mp4,angry,full,maschio,4,6,720,576,36,,,,,,,,,,,,,,,,,1,0,1,0,,,,,,,,,0,37,37,35,,,0.005195856553655176,0.009177841240671114,6750.950643596494,None,0.006148646221845411,0.012478446285967948,-47.0,194.0,1,0,0,3.692963161109219,click_1,0.006148646221845411,None,6756.97284263992,None,6756.97284263992,None,0.005281686527268903,0.010759601666904928,6760.666099277951,None,0.00612940183327737,0.012472031488869106,-140.0,26.0,1,0,0,3.8184125175766894,click_2,0.00612940183327737,None,6761.167811387033,None,6761.167811387033,None,6761.167811387033,None,0.005314722727234766,0.010854861388907011,,,01,001,moebius,56,m,8,1,aurora,2022_Jun_24_1543,CPO_EEG,2020.1.3,144.086735094303,
stimoli/01.full/M03-Surprise-Face Forward.mp4,surprised,full,maschio,4,6,720,576,52,,,,,,,,,,,,,,,,,1,0,1,0,,,,,,,,,0,38,38,51,,,0.002390602066043357,0.006010150772453926,6766.567627346532,None,0.006229151911611552,0.01267473904590588,50.0,-201.0,1,0,0,3.6652801084874227,click_1,0.006229151911611552,None,6772.590588467736,None,6772.590588467736,None,0.005380153646001418,0.010960705523757497,6776.256081868194,None,0.00611849667984643,0.012473314448470774,-2.0,8.0,1,0,0,2.7872471928849336,click_2,0.00611849667984643,None,6776.757860049676,None,6776.757860049676,None,6776.757860049676,None,0.0052839317058896995,0.010810599295837164,,,01,001,moebius,56,m,8,1,aurora,2022_Jun_24_1543,CPO_EEG,2020.1.3,144.086735094303,
stimoli/02.subtle/JF2_Disgust.mp4,disgusted,subtle,femmina,6,10,1646,926,10,,,,,,,,,,,,,,,,,1,0,1,0,,,,,,,,,0,39,39,9,,,0.0012360029131741612,0.00536328273210529,6781.135030495941,None,0.006221774897312571,0.012676342745180591,-23.0,-100.0,1,0,0,4.278378095780681,click_1,0.006221774897312571,None,6791.55728637446,None,6791.55728637446,None,0.005380153647820407,0.010957498127027065,6795.835858197083,None,0.006141589945400483,0.012480691462769755,-36.0,53.0,1,0,0,5.650981848692936,click_2,0.006141589945400483,None,6796.337526364812,None,6796.337526364812,None,6796.337526364812,None,0.005287139102620131,0.01079103416759608,,,01,001,moebius,56,m,8,1,aurora,2022_Jun_24_1543,CPO_EEG,2020.1.3,144.086735094303,
stimoli/01.full/M02-Fear-Face Forward.mp4,fear,full,maschio,3,6,720,576,31,,,,,,,,,,,,,,,,,1,0,1,0,,,,,,,,,0,40,40,30,,,0.0044385898727341555,0.008092778478385299,6803.574599267687,None,0.006217926019417064,0.012635608789423713,-109.0,-166.0,1,0,0,1.7837081498701082,click_1,0.006217926019417064,None,6809.600703638986,None,6809.600703638986,None,0.005412869107203733,0.011060134864237625,6811.384696285063,None,0.006131647010988672,0.012474918145926495,3.0,-1.0,1,0,0,3.0378902761949576,click_2,0.006131647010988672,None,6811.886343283965,None,6811.886343283965,None,6811.886343283965,None,0.005279120608975063,0.010757356488284131,,,01,001,moebius,56,m,8,1,aurora,2022_Jun_24_1543,CPO_EEG,2020.1.3,144.086735094303,
stimoli/01.full/F01-Anger-Face Forward.mp4,angry,full,femmina,1,6,720,576,33,,,,,,,,,,,,,,,,,1,0,1,0,,,,,,,,,0,41,41,32,,,0.0012156038628745591,0.004784154939443397,6816.527116305385,None,0.006162438033243234,0.012521425419436127,48.0,196.0,1,0,0,2.1946903449625097,click_1,0.006162438033243234,None,6822.552743415853,None,6822.552743415853,None,0.005395869897256489,0.010997590602528362,6824.747720181462,None,0.005379191427891783,0.011094454023805156,-20.0,97.0,1,0,0,5.281709299400973,click_2,0.005379191427891783,None,6825.249487137051,None,6825.249487137051,None,6825.249487137051,None,0.005292591679790348,0.01079360008588992,,,01,001,moebius,56,m,8,1,aurora,2022_Jun_24_1543,CPO_EEG,2020.1.3,144.086735094303,
stimoli/01.full/F03-Sadness-Face Forward.mp4,sad,full,femmina,2,6,720,576,46,,,,,,,,,,,,,,,,,1,0,1,0,,,,,,,,,0,42,42,45,,,0.0016805482846393716,0.005706795064725156,6832.121259532387,None,0.006231397091141844,0.01268564419933682,-22.0,-142.0,1,0,0,3.086656518458767,click_1,0.006231397091141844,None,6838.142347212386,None,6838.142347212386,None,0.005395869897256489,0.011013948332220025,6841.229224720571,None,0.006099893770624476,0.012418788681316073,0.0,0.0,1,0,0,2.5849565974895086,click_2,0.006099893770624476,None,6841.730981091747,None,6841.730981091747,None,6841.730981091747,None,0.005251536985269922,0.010746451334853191,,,01,001,moebius,56,m,8,1,aurora,2022_Jun_24_1543,CPO_EEG,2020.1.3,144.086735094303,
stimoli/01.full/F03-Joy-Face Forward.mp4,happy,full,femmina,2,6,720,576,42,,,,,,,,,,,,,,,,,1,0,1,0,,,,,,,,,0,43,43,41,,,0.005122086397932435,0.00867524196382874,6845.901204442118,None,0.00624967925978126,0.012718038919047103,186.0,114.0,1,0,0,1.9509024335175127,click_1,0.00624967925978126,None,6851.926639429442,None,6851.926639429442,None,0.005497223675774876,0.011225957343413029,6853.877839188759,None,0.0060492168813652825,0.012316151943196019,55.0,76.0,1,0,0,2.926285653436935,click_2,0.0060492168813652825,None,6854.379568617791,None,6854.379568617791,None,6854.379568617791,None,0.005272705812785716,0.010764092024146521,,,01,001,moebius,56,m,8,1,aurora,2022_Jun_24_1543,CPO_EEG,2020.1.3,144.086735094303,
stimoli/02.subtle/JM2_Anger.mp4,angry,subtle,maschio,8,10,1646,926,8,,,,,,,,,,,,,,,,,1,0,1,0,,,,,,,,,0,44,44,7,,,0.003307661318103783,0.006630204964494624,6858.892894394495,None,0.00624294372391887,0.012705850806014496,-28.0,136.0,1,0,0,5.268469160226232,click_1,0.00624294372391887,None,6869.878015916392,None,6869.878015916392,None,0.0053881721423749696,0.011029343842892558,6875.146735574406,None,0.006125873695964401,0.012448938223315054,16.0,64.0,1,0,0,1.3725643019160998,click_2,0.006125873695964401,None,6875.648497077419,None,6875.648497077419,None,6875.648497077419,None,0.005272064332530135,0.010781732713439851,,,01,001,moebius,56,m,8,1,aurora,2022_Jun_24_1543,CPO_EEG,2020.1.3,144.086735094303,
stimoli/02.subtle/JF1_Disgust.mp4,disgusted,subtle,femmina,5,10,1646,926,9,,,,,,,,,,,,,,,,,1,0,1,0,,,,,,,,,0,45,45,8,,,0.0043381983141443925,0.008319220781231706,6878.607732651825,None,0.006220171197128366,0.01264715542220074,-24.0,102.0,1,0,0,10.556809434368915,click_1,0.006220171197128366,None,6889.432182134023,None,6889.432182134023,None,0.00530317609445774,0.010842673276783898,6899.989249763936,None,0.006047613183000067,0.012308774927987542,-15.0,-103.0,1,0,0,1.170151504655223,click_2,0.006047613183000067,None,6900.491019606183,None,6900.491019606183,None,6900.491019606183,None,0.005413510586549819,0.011028060883290891,,,01,001,moebius,56,m,8,1,aurora,2022_Jun_24_1543,CPO_EEG,2020.1.3,144.086735094303,
stimoli/01.full/M03-Disgust-Face Forward.mp4,disgusted,full,maschio,4,6,720,576,40,,,,,,,,,,,,,,,,,1,0,1,0,,,,,,,,,0,46,46,39,,,0.001601261405085097,0.005259298887722252,6903.243491227125,None,0.00621183196290076,0.01261091182459495,-171.0,108.0,1,0,0,3.936786674672476,click_1,0.00621183196290076,None,6909.267202879473,None,6909.267202879473,None,0.005398435816459823,0.010988609888045175,6913.204237165276,None,0.006128760353021789,0.012495766233769245,-99.0,169.0,1,0,0,1.567584688138595,click_2,0.006128760353021789,None,6913.70599578163,None,6913.70599578163,None,6913.70599578163,None,0.005308628669808968,0.010825353326254117,,,01,001,moebius,56,m,8,1,aurora,2022_Jun_24_1543,CPO_EEG,2020.1.3,144.086735094303,
stimoli/01.full/M02-Neutral-Face Forward.mp4,neutral,full,maschio,3,6,720,576,55,,,,,,,,,,,,,,,,,1,0,1,0,,,,,,,,,0,47,47,54,,,0.006607753179196152,0.010337315638025757,6916.857590564091,None,0.006227548214155831,0.012643627285797265,150.0,-27.0,1,0,0,1.6860980463097803,click_1,0.006227548214155831,None,6922.878908535271,None,6922.878908535271,None,0.0054077372697065584,0.011007212796357635,6924.56523815572,None,0.0059998229507982614,0.012243023267728859,0.0,0.0,1,0,0,5.560835039668746,click_2,0.0059998229507982614,None,6925.066978810645,None,6925.066978810645,None,6925.066978810645,None,0.005225236321166449,0.010678133756300667,,,01,001,moebius,56,m,8,1,aurora,2022_Jun_24_1543,CPO_EEG,2020.1.3,144.086735094303,
stimoli/01.full/F03-Disgust-Face Forward.mp4,disgusted,full,femmina,2,6,720,576,38,,,,,,,,,,,,,,,,,1,0,1,0,,,,,,,,,0,48,48,37,,,0.0038256561037997017,0.007849978444937733,6932.215058926317,None,0.006242622984245827,0.012700077490990225,-43.0,213.0,1,0,0,3.957853827323561,click_1,0.006242622984245827,None,6938.241772703246,None,6938.241772703246,None,0.005408378749962139,0.011020363129318866,6942.199819615933,None,0.006121383336903818,0.012452787100301066,-56.0,84.0,1,0,0,7.3162776734307045,click_2,0.006121383336903818,None,6942.701549686444,None,6942.701549686444,None,6942.701549686444,None,0.005182577927371312,0.010602439162539667,,,01,001,moebius,56,m,8,1,aurora,2022_Jun_24_1543,CPO_EEG,2020.1.3,144.086735094303,
stimoli/01.full/M02-Joy-Face Forward.mp4,happy,full,maschio,3,6,720,576,43,,,,,,,,,,,,,,,,,1,0,1,0,,,,,,,,,0,49,49,42,,,0.00627097638334817,0.009882506594294682,6951.602117780788,None,0.006227548213246337,0.012681795321441314,126.0,86.0,1,0,0,2.048476934959581,click_1,0.006227548213246337,None,6957.623668929807,None,6957.623668929807,None,0.005406133571341343,0.011007854276613216,6959.672342478267,None,0.006095724153055926,0.012430656053766143,102.0,-20.0,1,0,0,2.285213061038121,click_2,0.006095724153055926,None,6960.1740815294925,None,6960.1740815294925,None,6960.1740815294925,None,0.005336212293514109,0.010863200623134617,,,01,001,moebius,56,m,8,1,aurora,2022_Jun_24_1543,CPO_EEG,2020.1.3,144.086735094303,
stimoli/01.full/F03-Anger-Face Forward.mp4,angry,full,femmina,2,6,720,576,34,,,,,,,,,,,,,,,,,1,0,1,0,,,,,,,,,0,50,50,33,,,0.0011529313042046851,0.00477568740825518,6964.048655907771,None,0.006222416376658657,0.012662550932873273,-37.0,202.0,1,0,0,2.933484337633672,click_1,0.006222416376658657,None,6970.069766039556,None,6970.069766039556,None,0.005409661708654312,0.011036720858101035,6973.003475857273,None,0.006121383337813313,0.012456315237614035,-103.0,24.0,1,0,0,1.9858675626855984,click_2,0.006121383337813313,None,6973.505216191458,None,6973.505216191458,None,6973.505216191458,None,0.00530477979373245,0.010876671696678386,,,01,001,moebius,56,m,8,1,aurora,2022_Jun_24_1543,CPO_EEG,2020.1.3,144.086735094303,
stimoli/02.subtle/JF2_Fear.mp4,fear,subtle,femmina,6,10,1646,926,2,,,,,,,,,,,,,,,,,1,0,1,0,,,,,,,,,0,51,51,1,,,0.000922960864045308,0.005173725507120253,6977.081640789379,None,0.006164683210954536,0.012537462408545252,25.0,-100.0,1,0,0,6.912343414826864,click_1,0.006164683210954536,None,6987.507313188307,None,6987.507313188307,None,0.005346796707272006,0.010915160471995478,6994.419991455491,None,0.006122024817159399,0.01245471153924882,-36.0,-58.0,1,0,0,8.194354209646008,click_2,0.006122024817159399,None,6994.921685282405,None,6994.921685282405,None,6994.921685282405,None,0.005283610966216656,0.010775317917250504,,,01,001,moebius,56,m,8,1,aurora,2022_Jun_24_1543,CPO_EEG,2020.1.3,144.086735094303,
stimoli/01.full/F03-Neutral-Face Forward.mp4,neutral,full,femmina,2,6,720,576,54,,,,,,,,,,,,,,,,,1,0,1,0,,,,,,,,,0,52,52,53,,,0.006574075498065213,0.010161229483856005,7004.699966835504,None,0.006183286121995479,0.012555744579003658,1.0,8.0,1,0,0,0.898595865279276,click_1,0.006183286121995479,None,7010.724547692726,None,7010.724547692726,None,0.005426660918601556,0.011037683078029659,7011.623421639417,None,0.006138061808087514,0.012471390010432515,8.0,1.0,1,0,0,7.31648134320676,click_2,0.006138061808087514,None,7012.125120277427,None,7012.125120277427,None,7012.125120277427,None,0.0052961198171033175,0.0107987319224776,,,01,001,moebius,56,m,8,1,aurora,2022_Jun_24_1543,CPO_EEG,2020.1.3,144.086735094303,
stimoli/01.full/F01-Sadness-Face Forward.mp4,sad,full,femmina,1,6,720,576,45,,,,,,,,,,,,,,,,,1,0,1,0,,,,,,,,,0,53,53,44,,,0.000760602373702568,0.0047679255048933555,7021.025107511983,None,0.00618072020188265,0.012550933481179527,-31.0,-146.0,1,0,0,7.811286962055419,click_1,0.00618072020188265,None,7027.049423438125,None,7027.049423438125,None,0.0054959407170827035,0.011219542547223682,7034.861108759019,None,0.0060873849179188255,0.012418147201060492,0.0,-2.0,1,0,0,9.128188795147253,click_2,0.0060873849179188255,None,7035.362859998358,None,7035.362859998358,None,7035.362859998358,None,0.005284893924908829,0.010777883836453839,,,01,001,moebius,56,m,8,1,aurora,2022_Jun_24_1543,CPO_EEG,2020.1.3,144.086735094303,
stimoli/02.subtle/JF2_Happiness.mp4,happy,subtle,femmina,6,9,1646,926,14,,,,,,,,,,,,,,,,,1,0,1,0,,,,,,,,,0,54,54,13,,,0.001413372026036086,0.005014317823224701,7046.080178536606,None,0.0062028512484175735,0.012597120012287633,107.0,81.0,1,0,0,2.522338885980389,click_1,0.0062028512484175735,None,7055.58543385832,None,7055.58543385832,None,0.005372455892029393,0.010952366290439386,7058.108013619895,None,0.005966786751741893,0.012175667909104959,113.0,162.0,1,0,0,2.410561384466746,click_2,0.005966786751741893,None,7058.609792122117,None,7058.609792122117,None,7058.609792122117,None,0.005253461423308181,0.01072881064555986,,,01,001,moebius,56,m,8,1,aurora,2022_Jun_24_1543,CPO_EEG,2020.1.3,144.086735094303,
stimoli/01.full/F01-Neutral-Face Forward.mp4,neutral,full,femmina,1,6,720,576,53,,,,,,,,,,,,,,,,,1,0,1,0,,,,,,,,,0,55,55,52,,,0.0018517591925046872,0.005436347260001639,7062.602254415946,None,0.006154419536869682,0.012536500189526123,-13.0,-65.0,1,0,0,10.034978920979484,click_1,0.006154419536869682,None,7068.625511900729,None,7068.625511900729,None,0.005356739640774322,0.01094338557413721,7078.660743564676,None,0.006117213719335268,0.012469144829083234,5.0,8.0,1,0,0,0.9125531786594365,click_2,0.006117213719335268,None,7079.162523349857,None,7079.162523349857,None,7079.162523349857,None,0.005357381121939397,0.01091965083105606,,,01,001,moebius,56,m,8,1,aurora,2022_Jun_24_1543,CPO_EEG,2020.1.3,144.086735094303,
,,,,,,,,,,,,,,,,,,,,,,,,,1,0,1,0,,,,,,,,,,,,,,,,,,,,,,,,,,,,,,,,,,,,,,,,,,,,,,,,,,,,,,,,,,,01,001,moebius,56,m,8,1,aurora,2022_Jun_24_1543,CPO_EEG,2020.1.3,144.086735094303,
