file,file_emotion,file_emotion_level,file_gender,file_id,file_duration,size_w,size_h,trigger,loop_practice_full.thisRepN,loop_practice_full.thisTrialN,loop_practice_full.thisN,loop_practice_full.thisIndex,loop_istr_practice.thisRepN,loop_istr_practice.thisTrialN,loop_istr_practice.thisN,loop_istr_practice.thisIndex,tuto.thisRepN,tuto.thisTrialN,tuto.thisN,tuto.thisIndex,loop_practice.thisRepN,loop_practice.thisTrialN,loop_practice.thisN,loop_practice.thisIndex,exp_blocks.thisRepN,exp_blocks.thisTrialN,exp_blocks.thisN,exp_blocks.thisIndex,istr_1.thisRepN,istr_1.thisTrialN,istr_1.thisN,istr_1.thisIndex,istr_2.thisRepN,istr_2.thisTrialN,istr_2.thisN,istr_2.thisIndex,exp.thisRepN,exp.thisTrialN,exp.thisN,exp.thisIndex,img_tutorial.started,img_tutorial.stopped,p_port.started,p_port.stopped,mov_target.started,mov_target.stopped,p_port_2.started,p_port_2.stopped,primary.x,primary.y,primary.leftButton,primary.midButton,primary.rightButton,primary.time,primary.clicked_name,primary.started,primary.stopped,img_primary_wheel.started,img_primary_wheel.stopped,click_1.started,click_1.stopped,p_port_4.started,p_port_4.stopped,txt_iwi.started,txt_iwi.stopped,p_port_3.started,p_port_3.stopped,secondary.x,secondary.y,secondary.leftButton,secondary.midButton,secondary.rightButton,secondary.time,secondary.clicked_name,secondary.started,secondary.stopped,img_secondary_wheel.started,img_secondary_wheel.stopped,click_2.started,click_2.stopped,primary_pos.started,primary_pos.stopped,p_port_5.started,p_port_5.stopped,kb_end_practice.keys,kb_end_practice.rt,participant,session,group,age,sex,education,practice,experimenter,date,expName,psychopyVersion,frameRate,
stimoli/03.practice/F04-Sadness-Face Forward.mp4,sadness,full,femmina,9,6,700,700,60,0,0,0,0,,,,,,,,,0,0,0,3,,,,,,,,,,,,,,,,,257.5114230382619,None,0.006486098319783196,0.013735068915138982,275.49007255706056,None,0.005895108829463425,0.012056461209340341,-32.0,-191.0,1,0,0,6.21622177276322,click_1,0.005895108829463425,None,281.5142452006562,None,281.5142452006562,None,0.0064158890404542035,0.007796981354204036,287.7274267100556,None,0.005935521656283527,0.01206736625817939,-34.0,-51.0,1,0,0,10.424004000228251,click_2,0.005935521656283527,None,288.23290777985403,None,288.23290777985403,None,288.23290777985403,None,0.004660913932639232,0.00955792216473128,,,09_control,001,control,18,m/f,18,1,thomas,2023_Apr_17_1018,CPO_EEG,2020.1.3,143.73340955302487,
stimoli/03.practice/F04-Surprise-Face Forward.mp4,surprise,full,femmina,9,6,700,700,61,0,0,0,0,,,,,,,,,0,1,1,4,,,,,,,,,,,,,,,,,,,0.005978532450626517,0.01027864964771652,300.29004830936447,None,0.006191469557961682,0.012603638052496535,41.0,-204.0,1,0,0,5.247014422247048,click_1,0.006191469557961682,None,306.51442673763904,None,306.51442673763904,None,0.005452812893054215,0.011138191981444834,311.76170223957615,None,0.006156188519071293,0.01250517187963851,2.0,1.0,1,0,0,2.891601573149728,click_2,0.006156188519071293,None,312.2634387081748,None,312.2634387081748,None,312.2634387081748,None,0.005377119027343724,0.01095857941891154,,,09_control,001,control,18,m/f,18,1,thomas,2023_Apr_17_1018,CPO_EEG,2020.1.3,143.73340955302487,
stimoli/03.practice/F04-Joy-Face Forward.mp4,joy,full,femmina,9,6,700,700,59,0,0,0,0,,,,,,,,,0,2,2,2,,,,,,,,,,,,,,,,,,,0.006064233301458444,0.009938732871887623,316.77367309615465,None,0.0061921110318508,0.012621599309113662,167.0,114.0,1,0,0,7.449590451283257,click_1,0.0061921110318508,None,322.79450077650336,None,322.79450077650336,None,0.0054428700545940956,0.011126324722681602,330.24436000515743,None,0.006149453047783027,0.012504209669714328,-1.0,-1.0,1,0,0,9.310416694730975,click_2,0.006149453047783027,None,330.7461477916313,None,330.7461477916313,None,330.7461477916313,None,0.005343120934867329,0.01087999892206426,,,09_control,001,control,18,m/f,18,1,thomas,2023_Apr_17_1018,CPO_EEG,2020.1.3,143.73340955302487,
stimoli/03.practice/F04-Anger-Face Forward.mp4,anger,full,femmina,9,6,700,700,57,0,0,0,0,,,,,,,,,0,3,3,0,,,,,,,,,,,,,,,,,,,0.0022712008576490916,0.006292277108968847,341.6793598223376,None,0.0061908280849820585,0.012590808584263868,-40.0,194.0,1,0,0,7.525478042043233,click_1,0.0061908280849820585,None,347.70133253277436,None,347.70133253277436,None,0.005457944680529181,0.011141078611672128,355.22708352176596,None,0.006142396840004949,0.01249522904117839,-52.0,78.0,1,0,0,3.5744805187723614,click_2,0.006142396840004949,None,355.728806198686,None,355.728806198686,None,355.728806198686,None,0.005361723664918827,0.010938693741991301,,,09_control,001,control,18,m/f,18,1,thomas,2023_Apr_17_1018,CPO_EEG,2020.1.3,143.73340955302487,
stimoli/03.practice/F04-Disgust-Face Forward.mp4,disgust,full,femmina,9,6,700,700,58,0,0,0,0,,,,,,,,,0,4,4,1,,,,,,,,,,,,,,,,,,,0.0027128873939545883,0.0064661484848329565,360.9184805931832,None,0.006240542275918415,0.012702424961844372,-84.0,121.0,1,0,0,7.804940435984008,click_1,0.006240542275918415,None,366.9424640021143,None,366.9424640021143,None,0.005465321625251818,0.011147493346470583,374.74761131328205,None,0.0061456042071768024,0.012501964512466657,-55.0,34.0,1,0,0,5.066168947425467,click_2,0.0061456042071768024,None,375.2493679882941,None,375.2493679882941,None,375.2493679882941,None,0.005383854499086738,0.010954089104870945,,,09_control,001,control,18,m/f,18,1,thomas,2023_Apr_17_1018,CPO_EEG,2020.1.3,143.73340955302487,
stimoli/03.practice/F04-Neutral-Face Forward.mp4,neutral,full,femmina,9,6,700,700,62,0,0,0,0,,,,,,,,,0,5,5,5,,,,,,,,,,,,,,,,,,,0.002683283395072067,0.006736112581620546,381.95157709452315,None,0.006239259329049673,0.012662653608913388,1.0,0.0,1,0,0,7.818167939029536,click_1,0.006239259329049673,None,387.97598547960706,None,387.97598547960706,None,0.00546820825593386,0.011152304397455737,395.7944157812726,None,0.006135340631772124,0.012481116625622235,0.0,0.0,1,0,0,2.173913392105078,click_2,0.006135340631772124,None,396.29614358998015,None,396.29614358998015,None,396.29614358998015,None,0.005205524882512691,0.010595826189273794,,,09_control,001,control,18,m/f,18,1,thomas,2023_Apr_17_1018,CPO_EEG,2020.1.3,143.73340955302487,
,,,,,,,,,0,0,0,0,,,,,,,,,,,,,,,,,,,,,,,,,,,,,,,,,,,,,,,,,,,,,,,,,,,,,,,,,,,,,,,,,,,,,,,,,n,89.39962095334522,09_control,001,control,18,m/f,18,1,thomas,2023_Apr_17_1018,CPO_EEG,2020.1.3,143.73340955302487,
,,,,,,,,,,,,,,,,,,,,,,,,,0,0,0,0,0,0,0,0,,,,,,,,,,,,,,,,,,,,,,,,,,,,,,,,,,,,,,,,,,,,,,,,,,,,,,,09_control,001,control,18,m/f,18,1,thomas,2023_Apr_17_1018,CPO_EEG,2020.1.3,143.73340955302487,
stimoli/02.subtle/JM1_Fear.mp4,fear,subtle,maschio,7,10,1646,926,3,,,,,,,,,,,,,,,,,0,0,0,0,,,,,,,,,0,0,0,2,,,0.0048787903870106675,0.00995701486544931,497.66628883881094,None,0.005960218383279425,0.012111948661640781,-76.0,-124.0,1,0,0,4.041313134617667,click_1,0.005960218383279425,None,508.08567743764706,None,508.08567743764706,None,0.004550901237962535,0.009322501412952988,512.1274861104962,None,0.0058543752656987635,0.011951580302138609,19.0,-90.0,1,0,0,6.012905483378745,click_2,0.0058543752656987635,None,512.6292097496262,None,512.6292097496262,None,512.6292097496262,None,0.004568541757635103,0.009325067306690471,,,09_control,001,control,18,m/f,18,1,thomas,2023_Apr_17_1018,CPO_EEG,2020.1.3,143.73340955302487,
stimoli/01.full/F03-Sadness-Face Forward.mp4,sad,full,femmina,2,6,720,576,46,,,,,,,,,,,,,,,,,0,0,0,0,,,,,,,,,0,1,1,45,,,0.00033651696639935835,0.0040448749164170295,520.2666810356714,None,0.006226429860362259,0.012646616772599373,-35.0,-186.0,1,0,0,11.135310803503216,click_1,0.006226429860362259,None,526.2909614468049,None,526.2909614468049,None,0.005544543594623974,0.011286372345693962,537.4265961943947,None,0.006090437491366174,0.012388744450618105,-54.0,-36.0,1,0,0,5.553516525318173,click_2,0.006090437491366174,None,537.9283259275226,None,537.9283259275226,None,537.9283259275226,None,0.005319386417795613,0.010829001783804415,,,09_control,001,control,18,m/f,18,1,thomas,2023_Apr_17_1018,CPO_EEG,2020.1.3,143.73340955302487,
stimoli/01.full/M03-Surprise-Face Forward.mp4,surprised,full,maschio,4,6,720,576,52,,,,,,,,,,,,,,,,,0,0,0,0,,,,,,,,,0,2,2,51,,,0.0023932091062306426,0.006129471150416066,545.0769466634079,None,0.006151377468086139,0.012525378293048561,50.0,-195.0,1,0,0,10.034866005820732,click_1,0.006151377468086139,None,551.1017687988601,None,551.1017687988601,None,0.005414324486991973,0.011003803296262049,561.1369273165687,None,0.006138547998943977,0.01248496546622846,37.0,-57.0,1,0,0,5.317027399255039,click_2,0.006138547998943977,None,561.638638446967,None,561.638638446967,None,561.638638446967,None,0.00535530893057512,0.01092041174933911,,,09_control,001,control,18,m/f,18,1,thomas,2023_Apr_17_1018,CPO_EEG,2020.1.3,143.73340955302487,
stimoli/02.subtle/JM1_Disgust.mp4,disgusted,subtle,maschio,7,10,1646,926,11,,,,,,,,,,,,,,,,,0,0,0,0,,,,,,,,,0,3,3,10,,,0.0010347928782721283,0.004938479490192549,568.5727337865983,None,0.0062212980728872935,0.012676124551035173,-119.0,83.0,1,0,0,7.818375134949747,click_1,0.0062212980728872935,None,578.9971031059499,None,578.9971031059499,None,0.0054415871081801015,0.011104514625912998,586.8157043602873,None,0.006086909387704509,0.012382329716274398,0.0,0.0,1,0,0,10.277812844992695,click_2,0.006086909387704509,None,587.3174401874126,None,587.3174401874126,None,587.3174401874126,None,0.005352743036837637,0.01090052607241887,,,09_control,001,control,18,m/f,18,1,thomas,2023_Apr_17_1018,CPO_EEG,2020.1.3,143.73340955302487,
stimoli/01.full/M03-Neutral-Face Forward.mp4,neutral,full,maschio,4,6,720,576,56,,,,,,,,,,,,,,,,,0,0,0,0,,,,,,,,,0,4,4,55,,,0.005706932596240222,0.009550320705329796,599.2143435385342,None,0.0062305994379130425,0.012718461798158387,0.0,0.0,1,0,0,8.069749010687701,click_1,0.0062305994379130425,None,605.2407392083319,None,605.2407392083319,None,0.0054370967941395065,0.011084308212957694,613.310688679469,None,0.006207827130765509,0.012623202992472216,0.0,0.0,1,0,0,2.7315773639420513,click_2,0.006207827130765509,None,613.8124328457493,None,613.8124328457493,None,613.8124328457493,None,0.005373590923227312,0.010951843947623274,,,09_control,001,control,18,m/f,18,1,thomas,2023_Apr_17_1018,CPO_EEG,2020.1.3,143.73340955302487,
stimoli/01.full/F01-Surprise-Face Forward.mp4,surprised,full,femmina,1,6,720,576,49,,,,,,,,,,,,,,,,,0,0,0,0,,,,,,,,,0,5,5,48,,,0.0006785506043343048,0.004766019356338802,618.1412431498652,None,0.0061654898836422944,0.012564187436055363,44.0,-199.0,1,0,0,7.504621816126928,click_1,0.0061654898836422944,None,624.1673055742117,None,624.1673055742117,None,0.005438379741008248,0.01106313958962346,631.6721782064528,None,0.006130850318186276,0.012453212530999735,2.0,3.0,1,0,0,8.375646204305212,click_2,0.006130850318186276,None,632.1738627157033,None,632.1738627157033,None,632.1738627157033,None,0.005336064727089251,0.010911431120803172,,,09_control,001,control,18,m/f,18,1,thomas,2023_Apr_17_1018,CPO_EEG,2020.1.3,143.73340955302487,
stimoli/02.subtle/JM1_Surprise.mp4,surprised,subtle,maschio,7,10,1646,926,23,,,,,,,,,,,,,,,,,0,0,0,0,,,,,,,,,0,6,6,22,,,0.0013815734191666706,0.004827889469652291,642.1521289541224,None,0.0062257883869278885,0.012623202992017468,82.0,-111.0,1,0,0,9.512674552941462,click_1,0.0062257883869278885,None,652.5749661141654,None,652.5749661141654,None,0.0053925143902233685,0.010989370143761334,662.0878735219649,None,0.0061363028421510535,0.012486889886531571,13.0,-62.0,1,0,0,10.293074139575765,click_2,0.0061363028421510535,None,662.589624744453,None,662.589624744453,None,662.589624744453,None,0.0053527430372923845,0.010928430167496117,,,09_control,001,control,18,m/f,18,1,thomas,2023_Apr_17_1018,CPO_EEG,2020.1.3,143.73340955302487,
stimoli/02.subtle/JM1_Sadness.mp4,sad,subtle,maschio,7,10,1646,926,19,,,,,,,,,,,,,,,,,0,0,0,0,,,,,,,,,0,7,7,18,,,0.0005512181260201032,0.004285555750357162,674.4797470798526,None,0.00621712849533651,0.012667143922953983,-137.0,-25.0,1,0,0,5.922904835490954,click_1,0.00621712849533651,None,684.9031439254709,None,684.9031439254709,None,0.005398608387622517,0.011007331399923714,690.8262604471965,None,0.00614207610306039,0.01252473681961419,-22.0,-97.0,1,0,0,3.574588607046735,click_2,0.00614207610306039,None,691.3280745340817,None,691.3280745340817,None,691.3280745340817,None,0.005359799244160968,0.010910789646914054,,,09_control,001,control,18,m/f,18,1,thomas,2023_Apr_17_1018,CPO_EEG,2020.1.3,143.73340955302487,
stimoli/02.subtle/JM2_Neutral.mp4,neutral,subtle,maschio,8,10,1646,926,28,,,,,,,,,,,,,,,,,0,0,0,0,,,,,,,,,0,8,8,27,,,0.0009493806901446078,0.004481974917780462,696.5397168279651,None,0.006225467650438077,0.012682539285833627,0.0,2.0,1,0,0,6.9269644001487904,click_1,0.006225467650438077,None,707.5257166701626,None,707.5257166701626,None,0.005450888472751103,0.011140437138692505,714.4529036615945,None,0.006145283470232243,0.012536283340978116,0.0,0.0,1,0,0,0.9126563350955621,click_2,0.006145283470232243,None,714.9546109431517,None,714.9546109431517,None,714.9546109431517,None,0.005371025029944576,0.010983917619796557,,,09_control,001,control,18,m/f,18,1,thomas,2023_Apr_17_1018,CPO_EEG,2020.1.3,143.73340955302487,
stimoli/01.full/M02-Fear-Face Forward.mp4,fear,full,maschio,3,6,720,576,31,,,,,,,,,,,,,,,,,0,0,0,0,,,,,,,,,0,9,9,30,,,0.0023299277518162853,0.006673985879388056,717.4834740405322,None,0.006219694389073993,0.012619674888355803,-102.0,-164.0,1,0,0,7.2607406708912094,click_1,0.006219694389073993,None,723.5097394912218,None,723.5097394912218,None,0.005471415622650966,0.01112504177581286,730.7707441284333,None,0.006145924943666614,0.012507737773375993,2.0,4.0,1,0,0,9.720605922980667,click_2,0.006145924943666614,None,731.2724652016695,None,731.2724652016695,None,731.2724652016695,None,0.005345366092115,0.010894752811509534,,,09_control,001,control,18,m/f,18,1,thomas,2023_Apr_17_1018,CPO_EEG,2020.1.3,143.73340955302487,
stimoli/01.full/M03-Sadness-Face Forward.mp4,sad,full,maschio,4,6,720,576,48,,,,,,,,,,,,,,,,,0,0,0,0,,,,,,,,,0,10,10,47,,,0.003101652371697128,0.007030997921447124,742.6012055851807,None,0.006222260283266223,0.012661049925554835,-42.0,-198.0,1,0,0,7.476835752650459,click_1,0.006222260283266223,None,748.6227318301044,None,748.6227318301044,None,0.005364610295146122,0.010959862365325534,756.0998097389779,None,0.006133736948413571,0.012515756191533,-36.0,-53.0,1,0,0,9.770342886797152,click_2,0.006133736948413571,None,756.6015567918885,None,756.6015567918885,None,756.6015567918885,None,0.005375194607040612,0.01093805226855693,,,09_control,001,control,18,m/f,18,1,thomas,2023_Apr_17_1018,CPO_EEG,2020.1.3,143.73340955302487,
stimoli/02.subtle/JF2_Happiness.mp4,happy,subtle,femmina,6,9,1646,926,14,,,,,,,,,,,,,,,,,0,0,0,0,,,,,,,,,0,11,11,13,,,0.0013639649737342552,0.005402681744271831,768.0364206166996,None,0.006242466696221527,0.01267355865729769,170.0,103.0,1,0,0,9.53269461823038,click_1,0.006242466696221527,None,777.5408268977508,None,777.5408268977508,None,0.005415928170350526,0.011035235494546214,787.0737418621075,None,0.006069910341011564,0.012379443085592357,35.0,52.0,1,0,0,12.249993424897184,click_2,0.006069910341011564,None,787.5754202773601,None,787.5754202773601,None,787.5754202773601,None,0.00533478178022051,0.010907582280196948,,,09_control,001,control,18,m/f,18,1,thomas,2023_Apr_17_1018,CPO_EEG,2020.1.3,143.73340955302487,
stimoli/01.full/M03-Fear-Face Forward.mp4,fear,full,maschio,4,6,720,576,32,,,,,,,,,,,,,,,,,0,0,0,0,,,,,,,,,0,12,12,31,,,0.0034453859143468435,0.007145404709717695,801.4534258209737,None,0.006166772830511036,0.012556810491332726,32.0,-191.0,1,0,0,13.080396507562,click_1,0.006166772830511036,None,807.4816217859775,None,807.4816217859775,None,0.005466925309065118,0.011159681341723626,820.5623242763695,None,0.006056118662854715,0.012332936261827854,-49.0,-81.0,1,0,0,2.11796472024389,click_2,0.006056118662854715,None,821.0640440666593,None,821.0640440666593,None,821.0640440666593,None,0.005381930077874131,0.01099353972085737,,,09_control,001,control,18,m/f,18,1,thomas,2023_Apr_17_1018,CPO_EEG,2020.1.3,143.73340955302487,
stimoli/02.subtle/JF1_Sadness.mp4,sad,subtle,femmina,5,10,1646,926,17,,,,,,,,,,,,,,,,,0,0,0,0,,,,,,,,,0,13,13,16,,,0.006650956981957279,0.010319864315533778,824.7797058331103,None,0.006226429860362259,0.01268093560156558,-120.0,-78.0,1,0,0,6.6266111407257995,click_1,0.006226429860362259,None,835.6005586592178,None,835.6005586592178,None,0.005454416576867516,0.01112760767000509,842.2274087487995,None,0.006162923989904812,0.012519925768629037,-63.0,-14.0,1,0,0,3.393299553341876,click_2,0.006162923989904812,None,842.7291182755139,None,842.7291182755139,None,842.7291182755139,None,0.005359799244615715,0.010921053222318733,,,09_control,001,control,18,m/f,18,1,thomas,2023_Apr_17_1018,CPO_EEG,2020.1.3,143.73340955302487,
stimoli/02.subtle/JF2_Anger.mp4,angry,subtle,femmina,6,9,1646,926,6,,,,,,,,,,,,,,,,,0,0,0,0,,,,,,,,,0,14,14,5,,,0.0012868598660134012,0.005490435311003239,847.7463771183857,None,0.006224184703569335,0.012658163294872793,-29.0,142.0,1,0,0,10.59865765268205,click_1,0.006224184703569335,None,857.2532716749065,None,857.2532716749065,None,0.005460189837776852,0.011118947778413713,867.85214422119,None,0.0061516982045759505,0.0125420566023422,-54.0,77.0,1,0,0,3.734720263055351,click_2,0.0061516982045759505,None,868.3539031413593,None,868.3539031413593,None,868.3539031413593,None,0.005386741129314032,0.010960503839214653,,,09_control,001,control,18,m/f,18,1,thomas,2023_Apr_17_1018,CPO_EEG,2020.1.3,143.73340955302487,
stimoli/01.full/M02-Sadness-Face Forward.mp4,sad,full,maschio,3,6,720,576,47,,,,,,,,,,,,,,,,,0,0,0,0,,,,,,,,,0,15,15,46,,,0.005077999963759794,0.008801111802767991,873.7014063022198,None,0.006223543230134965,0.012680294128585956,-98.0,-20.0,1,0,0,7.295616619550401,click_1,0.006223543230134965,None,879.3685146233493,None,879.3685146233493,None,0.005449926263281668,0.0111186270419239,886.6643698710186,None,0.006135661368716683,0.01250677556345181,-83.0,-57.0,1,0,0,4.459423918363427,click_2,0.006135661368716683,None,887.1660826051007,None,887.1660826051007,None,887.1660826051007,None,0.005360440718050086,0.010952164684113086,,,09_control,001,control,18,m/f,18,1,thomas,2023_Apr_17_1018,CPO_EEG,2020.1.3,143.73340955302487,
stimoli/02.subtle/JF2_Sadness.mp4,sad,subtle,femmina,6,8,1646,926,18,,,,,,,,,,,,,,,,,0,0,0,0,,,,,,,,,0,16,16,17,,,0.0004854670987697318,0.004379852346119151,893.2228863610558,None,0.006244391116979386,0.01267612455148992,-136.0,27.0,1,0,0,9.19110616321268,click_1,0.006244391116979386,None,901.6046371473417,None,901.6046371473417,None,0.005457623944039369,0.011141078612126876,910.7959816179368,None,0.006130208844297158,0.01246604199968715,-30.0,51.0,1,0,0,2.194701621837339,click_2,0.006130208844297158,None,911.2976475244577,None,911.2976475244577,None,911.2976475244577,None,0.005363648085221939,0.010934524164440518,,,09_control,001,control,18,m/f,18,1,thomas,2023_Apr_17_1018,CPO_EEG,2020.1.3,143.73340955302487,
stimoli/01.full/M02-Anger-Face Forward.mp4,angry,full,maschio,3,6,720,576,35,,,,,,,,,,,,,,,,,0,0,0,0,,,,,,,,,0,17,17,34,,,0.006487701992227812,0.010305110426543251,915.0902129755964,None,0.00622065659990767,0.012661049925554835,-37.0,203.0,1,0,0,3.748835886076904,click_1,0.00622065659990767,None,921.1169213636954,None,921.1169213636954,None,0.005472698569519707,0.011128569879929273,924.8659808032658,None,0.006142396840004949,0.012472777470975416,-50.0,76.0,1,0,0,6.027206171487705,click_2,0.006142396840004949,None,925.3677538358506,None,925.3677538358506,None,925.3677538358506,None,0.005376156817874289,0.010961786786083394,,,09_control,001,control,18,m/f,18,1,thomas,2023_Apr_17_1018,CPO_EEG,2020.1.3,143.73340955302487,
stimoli/02.subtle/JM2_Surprise.mp4,surprised,subtle,maschio,8,10,1646,926,24,,,,,,,,,,,,,,,,,0,0,0,0,,,,,,,,,0,18,18,23,,,0.002138480003395671,0.005793274920961267,933.0038071448594,None,0.006241504486752092,0.012671954973939137,49.0,-199.0,1,0,0,4.529522211338644,click_1,0.006241504486752092,None,943.9873520682063,None,943.9873520682063,None,0.005439341951387178,0.011080780108841282,948.5170872487265,None,0.006133736948413571,0.01247726778501601,80.0,-121.0,1,0,0,1.3655725054218237,click_2,0.006133736948413571,None,949.0189013356116,None,949.0189013356116,None,949.0189013356116,None,0.005402457228683488,0.011039084335607185,,,09_control,001,control,18,m/f,18,1,thomas,2023_Apr_17_1018,CPO_EEG,2020.1.3,143.73340955302487,
stimoli/01.full/F03-Fear-Face Forward.mp4,fear,full,femmina,2,6,720,576,30,,,,,,,,,,,,,,,,,0,0,0,0,,,,,,,,,0,19,19,29,,,0.0009482260375079932,0.004959359450822376,951.99505391905,None,0.006242145959276968,0.01266521950265087,-106.0,-166.0,1,0,0,2.585005173483296,click_1,0.006242145959276968,None,958.0159800655715,None,958.0159800655715,None,0.005482641407979827,0.01118084996505786,960.601260110423,None,0.006063816344067163,0.012345765730515268,19.0,-87.0,1,0,0,6.69619304758271,click_2,0.006063816344067163,None,961.102973485978,None,961.102973485978,None,961.102973485978,None,0.005335102516710322,0.010875187871533853,,,09_control,001,control,18,m/f,18,1,thomas,2023_Apr_17_1018,CPO_EEG,2020.1.3,143.73340955302487,
stimoli/02.subtle/JM1_Happiness.mp4,happy,subtle,maschio,7,10,1646,926,15,,,,,,,,,,,,,,,,,0,0,0,0,,,,,,,,,0,20,20,14,,,0.00043209650857534143,0.003992915567323507,969.4233317360645,None,0.006238297119125491,0.012698255385203083,193.0,33.0,1,0,0,6.292321691231791,click_1,0.006238297119125491,None,979.8506220047198,None,979.8506220047198,None,0.005265823385343538,0.010716423194935487,986.1430800090575,None,0.006146245680611173,0.012501643775522098,61.0,-14.0,1,0,0,2.7104478703399764,click_2,0.006146245680611173,None,986.6447946675594,None,986.6447946675594,None,986.6447946675594,None,0.005388024075728026,0.010980389515680145,,,09_control,001,control,18,m/f,18,1,thomas,2023_Apr_17_1018,CPO_EEG,2020.1.3,143.73340955302487,
stimoli/01.full/M02-Disgust-Face Forward.mp4,disgusted,full,maschio,3,6,720,576,39,,,,,,,,,,,,,,,,,0,0,0,0,,,,,,,,,0,21,21,38,,,0.0026711916211752396,0.006326948749119765,990.970354625761,None,0.006240542275918415,0.012695048017576482,-161.0,107.0,1,0,0,4.222879625584483,click_1,0.006240542275918415,None,996.9963852971719,None,996.9963852971719,None,0.005452812893508963,0.011109325676898152,1001.2194525537379,None,0.006152981151899439,0.01251607692847756,-54.0,81.0,1,0,0,4.905874357163611,click_2,0.006152981151899439,None,1001.7212037762256,None,1001.7212037762256,None,1001.7212037762256,None,0.005337989147847111,0.010898280915625946,,,09_control,001,control,18,m/f,18,1,thomas,2023_Apr_17_1018,CPO_EEG,2020.1.3,143.73340955302487,
stimoli/02.subtle/JM2_Happiness.mp4,happy,subtle,maschio,8,10,1646,926,16,,,,,,,,,,,,,,,,,0,0,0,0,,,,,,,,,0,22,22,15,,,0.003875878738654137,0.007748453888780205,1008.2413094782191,None,0.006216166285412328,0.012641805722523713,141.0,-32.0,1,0,0,7.309588552521291,click_1,0.006216166285412328,None,1018.8640589488432,None,1018.8640589488432,None,0.005444473738407396,0.011131777247101127,1026.17392365568,None,0.00616003735922277,0.01253307597426101,53.0,-37.0,1,0,0,2.682410028538925,click_2,0.00616003735922277,None,1026.6756238810299,None,1026.6756238810299,None,1026.6756238810299,None,0.0053873826022936555,0.010996747088029224,,,09_control,001,control,18,m/f,18,1,thomas,2023_Apr_17_1018,CPO_EEG,2020.1.3,143.73340955302487,
stimoli/02.subtle/JF1_Neutral.mp4,neutral,subtle,femmina,5,10,1646,926,25,,,,,,,,,,,,,,,,,0,0,0,0,,,,,,,,,0,23,23,24,,,0.006263410804422165,0.009923658246407285,1030.9764386805919,None,0.006228675017155183,0.012668106132878165,-1.0,2.0,1,0,0,1.4979790379311453,click_1,0.006228675017155183,None,1041.8038018206298,None,1041.8038018206298,None,0.005405023121966224,0.011014708344646351,1043.3020117889987,None,0.006122190426594898,0.012461551686101302,-1.0,0.0,1,0,0,0.5780586576142923,click_2,0.006122190426594898,None,1043.8038111219948,None,1043.8038111219948,None,1043.8038111219948,None,0.005414645223481784,0.011015991291515093,,,09_control,001,control,18,m/f,18,1,thomas,2023_Apr_17_1018,CPO_EEG,2020.1.3,143.73340955302487,
stimoli/01.full/M03-Joy-Face Forward.mp4,happy,full,maschio,4,6,720,576,44,,,,,,,,,,,,,,,,,0,0,0,0,,,,,,,,,0,24,24,43,,,0.004370839644707303,0.008362728854535817,1045.9821946217585,None,0.006246315536827751,0.012680294128131209,103.0,169.0,1,0,0,2.8358934538277936,click_1,0.006246315536827751,None,1052.0066783799716,None,1052.0066783799716,None,0.005454737313357327,0.011110929360256705,1054.842771011302,None,0.006149453047783027,0.012491700937516725,-1.0,0.0,1,0,0,5.288521602580204,click_2,0.006149453047783027,None,1055.3445247996838,None,1055.3445247996838,None,1055.3445247996838,None,0.005355950404009491,0.010953126894492016,,,09_control,001,control,18,m/f,18,1,thomas,2023_Apr_17_1018,CPO_EEG,2020.1.3,143.73340955302487,
stimoli/02.subtle/JF1_Happiness.mp4,happy,subtle,femmina,5,10,1646,926,13,,,,,,,,,,,,,,,,,0,0,0,0,,,,,,,,,0,25,25,12,,,0.006235602931155881,0.009758254320331616,1062.2988169305368,None,0.006224184703569335,0.012657842558382981,165.0,105.0,1,0,0,2.8358803036221616,click_1,0.006224184703569335,None,1073.1210126812884,None,1073.1210126812884,None,0.0054662838356307475,0.011142682295940176,1075.9571274434525,None,0.006139189472833095,0.012478871468829311,139.0,27.0,1,0,0,1.9090605557339586,click_2,0.006139189472833095,None,1076.4587930292364,None,1076.4587930292364,None,1076.4587930292364,None,0.005413683014012349,0.011017274238838581,,,09_control,001,control,18,m/f,18,1,thomas,2023_Apr_17_1018,CPO_EEG,2020.1.3,143.73340955302487,
stimoli/01.full/F01-Disgust-Face Forward.mp4,disgusted,full,femmina,1,6,720,576,37,,,,,,,,,,,,,,,,,0,0,0,0,,,,,,,,,0,26,26,36,,,0.0006130882397883397,0.004311182614401332,1079.9715407101494,None,0.006210393024048244,0.012629938462850987,-106.0,168.0,1,0,0,4.131947237526674,click_1,0.006210393024048244,None,1085.9972557766287,None,1085.9972557766287,None,0.005470132676236972,0.011128890616873832,1090.1294721122626,None,0.0061654898836422944,0.012524416082669632,-79.0,52.0,1,0,0,4.94788156604227,click_2,0.0061654898836422944,None,1090.6311838841343,None,1090.6311838841343,None,1090.6311838841343,None,0.0054723778330298956,0.011156794711041584,,,09_control,001,control,18,m/f,18,1,thomas,2023_Apr_17_1018,CPO_EEG,2020.1.3,143.73340955302487,
stimoli/02.subtle/JM2_Anger.mp4,angry,subtle,maschio,8,10,1646,926,8,,,,,,,,,,,,,,,,,0,0,0,0,,,,,,,,,0,27,27,7,,,0.002913347843787051,0.006769565421564039,1097.1942564392707,None,0.006208147867710068,0.012658163294872793,-139.0,25.0,1,0,0,4.613018318556897,click_1,0.006208147867710068,None,1108.1796760687425,None,1108.1796760687425,None,0.005443832264973025,0.011126324722681602,1112.7929381472063,None,0.006147849364424474,0.012544943233024242,-12.0,64.0,1,0,0,2.5780522428799486,click_2,0.006147849364424474,None,1113.2946114306715,None,1113.2946114306715,None,1113.2946114306715,None,0.005373911659717123,0.010933241217571776,,,09_control,001,control,18,m/f,18,1,thomas,2023_Apr_17_1018,CPO_EEG,2020.1.3,143.73340955302487,
stimoli/02.subtle/JF1_Surprise.mp4,surprised,subtle,femmina,5,10,1646,926,21,,,,,,,,,,,,,,,,,0,0,0,0,,,,,,,,,0,28,28,20,,,0.003743638989817555,0.007375020127255993,1117.5070578115105,None,0.006184734086673416,0.012580545008404442,34.0,-201.0,1,0,0,4.452474836600686,click_1,0.006184734086673416,None,1128.3310246704268,None,1128.3310246704268,None,0.005456020260680816,0.011137229771520651,1132.7837788687102,None,0.0061459249441213615,0.012485286203173018,82.0,-119.0,1,0,0,2.4036497272772976,click_2,0.0061459249441213615,None,1133.2855377888795,None,1133.2855377888795,None,1133.2855377888795,None,0.0054107963833303074,0.011038763599117374,,,09_control,001,control,18,m/f,18,1,thomas,2023_Apr_17_1018,CPO_EEG,2020.1.3,143.73340955302487,
stimoli/01.full/M03-Disgust-Face Forward.mp4,disgusted,full,maschio,4,6,720,576,40,,,,,,,,,,,,,,,,,0,0,0,0,,,,,,,,,0,29,29,39,,,0.006503450164927926,0.01075866422161198,1137.2808120540558,None,0.006211355234881921,0.012637315408483119,-155.0,105.0,1,0,0,3.7276942044800307,click_1,0.006211355234881921,None,1143.3066887718414,None,1143.3066887718414,None,0.005564108535054402,0.011359500318121718,1147.034743163657,None,0.006070551814900682,0.012377839402233803,-3.0,-1.0,1,0,0,6.389634494849361,click_2,0.006070551814900682,None,1147.5364578221593,None,1147.5364578221593,None,1147.5364578221593,None,0.005359478508125903,0.010920732485828921,,,09_control,001,control,18,m/f,18,1,thomas,2023_Apr_17_1018,CPO_EEG,2020.1.3,143.73340955302487,
stimoli/01.full/F03-Surprise-Face Forward.mp4,surprised,full,femmina,2,6,720,576,50,,,,,,,,,,,,,,,,,0,0,0,0,,,,,,,,,0,30,30,49,,,0.00021531056063395226,0.00403143604808065,1155.543912064255,None,0.006227712807231001,0.012648220456412673,44.0,-197.0,1,0,0,3.5675323992195445,click_1,0.006227712807231001,None,1161.5694385375432,None,1161.5694385375432,None,0.0054569824706049985,0.011140757875182317,1165.1372445251845,None,0.006159716622732958,0.012513190297795518,36.0,-53.0,1,0,0,4.738135146907098,click_2,0.006159716622732958,None,1165.6389101109685,None,1165.6389101109685,None,1165.6389101109685,None,0.005359157771181344,0.010920411748884362,,,09_control,001,control,18,m/f,18,1,thomas,2023_Apr_17_1018,CPO_EEG,2020.1.3,143.73340955302487,
stimoli/01.full/F01-Sadness-Face Forward.mp4,sad,full,femmina,1,6,720,576,45,,,,,,,,,,,,,,,,,0,0,0,0,,,,,,,,,0,31,31,44,,,0.0060603844608522195,0.009762648413015995,1171.9955895493713,None,0.0062212980728872935,0.01264725824648849,-34.0,-204.0,1,0,0,3.358552861580847,click_1,0.0062212980728872935,None,1178.021863980689,None,1178.021863980689,None,0.005411117119820119,0.011024009709217353,1181.3806067184078,None,0.006137265052529983,0.012481758099056606,0.0,1.0,1,0,0,5.4842531100239285,click_2,0.006137265052529983,None,1181.8823399796397,None,1181.8823399796397,None,1181.8823399796397,None,0.005343441671811888,0.010885451446483785,,,09_control,001,control,18,m/f,18,1,thomas,2023_Apr_17_1018,CPO_EEG,2020.1.3,143.73340955302487,
stimoli/01.full/F01-Fear-Face Forward.mp4,fear,full,femmina,1,6,720,576,29,,,,,,,,,,,,,,,,,0,0,0,0,,,,,,,,,0,32,32,28,,,0.0017843545920186443,0.0058503339841990964,1188.9831347010827,None,0.006222581019301288,0.01267259644691876,-119.0,-79.0,1,0,0,9.908738856804575,click_1,0.006222581019301288,None,1195.009902425475,None,1195.009902425475,None,0.005455058050301886,0.01112600398619179,1204.9188744578746,None,0.006159716622732958,0.01249554977812295,15.0,-65.0,1,0,0,3.003118202385849,click_2,0.006159716622732958,None,1205.4205503072335,None,1205.4205503072335,None,1205.4205503072335,None,0.005374553133606241,0.010944467002900637,,,09_control,001,control,18,m/f,18,1,thomas,2023_Apr_17_1018,CPO_EEG,2020.1.3,143.73340955302487,
stimoli/02.subtle/JF2_Disgust.mp4,disgusted,subtle,femmina,6,10,1646,926,10,,,,,,,,,,,,,,,,,0,0,0,0,,,,,,,,,0,33,33,9,,,0.0037793369865539717,0.0074293208531344135,1210.037640057707,None,0.006135661368716683,0.012481437362112047,-142.0,26.0,1,0,0,4.354949705274976,click_1,0.006135661368716683,None,1220.4600990691579,None,1220.4600990691579,None,0.005460510574266664,0.01111477820086293,1224.8153624549445,None,0.006148170100914285,0.01248656915004176,-52.0,40.0,1,0,0,2.2156431637217793,click_2,0.006148170100914285,None,1225.3171297142685,None,1225.3171297142685,None,1225.3171297142685,None,0.005383213024742872,0.010952164684113086,,,09_control,001,control,18,m/f,18,1,thomas,2023_Apr_17_1018,CPO_EEG,2020.1.3,143.73340955302487,
stimoli/01.full/F01-Neutral-Face Forward.mp4,neutral,full,femmina,1,6,720,576,53,,,,,,,,,,,,,,,,,0,0,0,0,,,,,,,,,0,34,34,52,,,0.0016433266564490623,0.00562687671117601,1229.129094605144,None,0.006186658506976528,0.012595940371284087,0.0,0.0,1,0,0,1.267974566861085,click_1,0.006186658506976528,None,1235.1547955592077,None,1235.1547955592077,None,0.005427153955679387,0.011052876014218782,1236.4229705865182,None,0.006171904618440749,0.012556810491787473,0.0,0.0,1,0,0,0.6408245884463213,click_2,0.006171904618440749,None,1236.9246595860827,None,1236.9246595860827,None,1236.9246595860827,None,0.005397325440753775,0.011009576556716638,,,09_control,001,control,18,m/f,18,1,thomas,2023_Apr_17_1018,CPO_EEG,2020.1.3,143.73340955302487,
stimoli/02.subtle/JM2_Fear.mp4,fear,subtle,maschio,8,10,1646,926,4,,,,,,,,,,,,,,,,,0,0,0,0,,,,,,,,,0,35,35,3,,,0.002557426306339039,0.005956273321771732,1239.2279786979498,None,0.006222901757155341,0.012644692353205755,30.0,-144.0,1,0,0,3.720930829277677,click_1,0.006222901757155341,None,1249.8544358850504,None,1249.8544358850504,None,0.005486490248586051,0.011157115447986143,1253.575600852133,None,0.006143679787328438,0.012529547871054092,-90.0,-16.0,1,0,0,3.086724001562743,click_2,0.006143679787328438,None,1254.0774226366993,None,1254.0774226366993,None,1254.0774226366993,None,0.0053678176627727225,0.010940297425804602,,,09_control,001,control,18,m/f,18,1,thomas,2023_Apr_17_1018,CPO_EEG,2020.1.3,143.73340955302487,
stimoli/01.full/F03-Disgust-Face Forward.mp4,disgusted,full,femmina,2,6,720,576,38,,,,,,,,,,,,,,,,,0,0,0,0,,,,,,,,,0,36,36,37,,,0.0006852540013824182,0.004363141963040107,1258.767645490987,None,0.006245353326903569,0.012699538331617077,-107.0,170.0,1,0,0,6.933234161539531,click_1,0.006245353326903569,None,1264.7937640442592,None,1264.7937640442592,None,0.005458586153963552,0.011142040822051058,1271.7272355509708,None,0.006147207890990103,0.012506454826961999,-25.0,142.0,1,0,0,3.3793786175092464,click_2,0.006147207890990103,None,1272.2288879865496,None,1272.2288879865496,None,1272.2288879865496,None,0.005349214933175972,0.010887055130751833,,,09_control,001,control,18,m/f,18,1,thomas,2023_Apr_17_1018,CPO_EEG,2020.1.3,143.73340955302487,
stimoli/02.subtle/JF2_Neutral.mp4,neutral,subtle,femmina,6,9,1646,926,26,,,,,,,,,,,,,,,,,0,0,0,0,,,,,,,,,0,37,37,25,,,0.006308410167093825,0.010359956406773563,1277.3426609986072,None,0.0062216188098318526,0.012674200131186808,0.0,0.0,1,0,0,4.278338211738628,click_1,0.0062216188098318526,None,1286.8470271875685,None,1286.8470271875685,None,0.005428116165603569,0.01104934791010237,1291.1255267298775,None,0.006178640089274268,0.012592091530677862,0.0,0.0,1,0,0,0.661588762925021,click_2,0.006178640089274268,None,1291.6272673680537,None,1291.6272673680537,None,1291.6272673680537,None,0.005475585200201749,0.011145889662657282,,,09_control,001,control,18,m/f,18,1,thomas,2023_Apr_17_1018,CPO_EEG,2020.1.3,143.73340955302487,
stimoli/02.subtle/JF2_Fear.mp4,fear,subtle,femmina,6,10,1646,926,2,,,,,,,,,,,,,,,,,0,0,0,0,,,,,,,,,0,38,38,1,,,0.005084093961158942,0.008860768832164467,1293.9016653291947,None,0.006224826177003706,0.012682860022323439,-112.0,-168.0,1,0,0,4.898613840045982,click_1,0.006224826177003706,None,1304.3281284178506,None,1304.3281284178506,None,0.0054524921565644036,0.011090081473412283,1309.2269334169814,None,0.006083702020532655,0.01237623571887525,34.0,-141.0,1,0,0,6.3618067355992025,click_2,0.006083702020532655,None,1309.7287086947235,None,1309.7287086947235,None,1309.7287086947235,None,0.005142019012055243,0.010449249508383218,,,09_control,001,control,18,m/f,18,1,thomas,2023_Apr_17_1018,CPO_EEG,2020.1.3,143.73340955302487,
stimoli/02.subtle/JM2_Sadness.mp4,sad,subtle,maschio,8,10,1646,926,20,,,,,,,,,,,,,,,,,0,0,0,0,,,,,,,,,0,39,39,19,,,0.0052807055708399275,0.008722531306830206,1317.702723888663,None,0.0062459948003379395,0.012674841604621179,-163.0,-108.0,1,0,0,3.031237511313975,click_1,0.0062459948003379395,None,1328.3243498185593,None,1328.3243498185593,None,0.005439021213987871,0.011080138635406911,1331.3557926013737,None,0.0061513774676313915,0.012501323038577539,-132.0,-22.0,1,0,0,4.634168018571927,click_2,0.0061513774676313915,None,1331.857542220178,None,1331.857542220178,None,1331.857542220178,None,0.005349535669665784,0.010918808065525809,,,09_control,001,control,18,m/f,18,1,thomas,2023_Apr_17_1018,CPO_EEG,2020.1.3,143.73340955302487,
stimoli/01.full/M02-Neutral-Face Forward.mp4,neutral,full,maschio,3,6,720,576,55,,,,,,,,,,,,,,,,,0,0,0,0,,,,,,,,,0,40,40,54,,,0.005518435626527207,0.0096771079302016,1338.0909923658246,None,0.006229316491499048,0.012644692353205755,3.0,1.0,1,0,0,1.9090108415425675,click_1,0.006229316491499048,None,1344.1117347302056,None,1344.1117347302056,None,0.005427474692623946,0.011093930314473255,1346.02099863302,None,0.006129888107807346,0.012478550731884752,0.0,0.0,1,0,0,0.8359050003496122,click_2,0.006129888107807346,None,1346.5227293283579,None,1346.5227293283579,None,1346.5227293283579,None,0.004977481075457035,0.010147756992409995,,,09_control,001,control,18,m/f,18,1,thomas,2023_Apr_17_1018,CPO_EEG,2020.1.3,143.73340955302487,
stimoli/01.full/M02-Joy-Face Forward.mp4,happy,full,maschio,3,6,720,576,43,,,,,,,,,,,,,,,,,0,0,0,0,,,,,,,,,0,41,41,42,,,0.003322992783068912,0.006955336130431533,1349.0274771940153,None,0.006236372698822379,0.012659766978231346,124.0,85.0,1,0,0,5.065810043036436,click_1,0.006236372698822379,None,1355.050440339442,None,1355.050440339442,None,0.005433889426512906,0.011066988429774938,1360.1164822751266,None,0.006084984966946649,0.012379122348647797,0.0,1.0,1,0,0,3.434894936272485,click_2,0.006084984966946649,None,1360.6181818590026,None,1360.6181818590026,None,1360.6181818590026,None,0.005346969775928301,0.010925543536814075,,,09_control,001,control,18,m/f,18,1,thomas,2023_Apr_17_1018,CPO_EEG,2020.1.3,143.73340955302487,
stimoli/02.subtle/JM1_Anger.mp4,angry,subtle,maschio,7,10,1646,926,7,,,,,,,,,,,,,,,,,0,0,0,0,,,,,,,,,0,42,42,6,,,0.0045802486483808025,0.008177952430287405,1365.6594991631978,None,0.006217128495791258,0.012631221410629223,-30.0,143.0,1,0,0,9.777243858051861,click_1,0.006217128495791258,None,1376.0844127727623,None,1376.0844127727623,None,0.005453454366943333,0.011149097030283883,1385.8619391998645,None,0.00611513421881682,0.012482720309435535,-100.0,14.0,1,0,0,1.296021068553273,click_2,0.00611513421881682,None,1386.3637061384516,None,1386.3637061384516,None,1386.3637061384516,None,0.005354988194085308,0.010917845855601627,,,09_control,001,control,18,m/f,18,1,thomas,2023_Apr_17_1018,CPO_EEG,2020.1.3,143.73340955302487,
stimoli/01.full/F01-Joy-Face Forward.mp4,happy,full,femmina,1,6,720,576,41,,,,,,,,,,,,,,,,,0,0,0,0,,,,,,,,,0,43,43,40,,,0.004873369937286043,0.009143017146016064,1389.4093588408832,None,0.006214883338543586,0.012641484985124407,175.0,108.0,1,0,0,4.619726847780385,click_1,0.006214883338543586,None,1395.4314383566475,None,1395.4314383566475,None,0.005453133629998774,0.011104835362857557,1400.0513945311823,None,0.006089796018386551,0.012372386878269026,-1.0,2.0,1,0,0,4.95404965389298,click_2,0.006089796018386551,None,1400.5531396596725,None,1400.5531396596725,None,1400.5531396596725,None,0.005305594739184016,0.010812644211455336,,,09_control,001,control,18,m/f,18,1,thomas,2023_Apr_17_1018,CPO_EEG,2020.1.3,143.73340955302487,
stimoli/02.subtle/JF1_Disgust.mp4,disgusted,subtle,femmina,5,10,1646,926,9,,,,,,,,,,,,,,,,,0,0,0,0,,,,,,,,,0,44,44,8,,,0.0032001185450099,0.006778898859920446,1407.115006886217,None,0.006225146913493518,0.01268318075881325,-160.0,-111.0,1,0,0,5.030992468460681,click_1,0.006225146913493518,None,1417.935874145477,None,1417.935874145477,None,0.0054059853323451534,0.011016632764949463,1422.9670789416455,None,0.006157471465940034,0.012505813353072881,-100.0,-15.0,1,0,0,3.958091898768089,click_2,0.006157471465940034,None,1423.4688449180226,None,1423.4688449180226,None,1423.4688449180226,None,0.00529725558408245,0.010792117061100726,,,09_control,001,control,18,m/f,18,1,thomas,2023_Apr_17_1018,CPO_EEG,2020.1.3,143.73340955302487,
stimoli/02.subtle/JF1_Fear.mp4,fear,subtle,femmina,5,10,1646,926,1,,,,,,,,,,,,,,,,,0,0,0,0,,,,,,,,,0,45,45,0,,,0.005165176203718147,0.009262908531127323,1429.0537134576634,None,0.0062216188098318526,0.012649182666791603,-76.0,115.0,1,0,0,7.811157596552675,click_1,0.0062216188098318526,None,1439.8742336797932,None,1439.8742336797932,None,0.005444794475351955,0.011120230725282454,1447.6856343947793,None,0.006071834761314676,0.012351538990969857,-14.0,65.0,1,0,0,3.6581087695190035,click_2,0.006071834761314676,None,1448.1872890755149,None,1448.1872890755149,None,1448.1872890755149,None,0.005363648085676687,0.010933241218481271,,,09_control,001,control,18,m/f,18,1,thomas,2023_Apr_17_1018,CPO_EEG,2020.1.3,143.73340955302487,
stimoli/02.subtle/JF1_Anger.mp4,angry,subtle,femmina,5,10,1646,926,5,,,,,,,,,,,,,,,,,0,0,0,0,,,,,,,,,0,46,46,4,,,0.004031756785025209,0.0076317057237247354,1453.4592032515006,None,0.006229316490589554,0.012644371615806449,-73.0,-120.0,1,0,0,3.8462827576427117,click_1,0.006229316490589554,None,1464.2860650800462,None,1464.2860650800462,None,0.005454737313812075,0.011142040822505805,1468.1326028233811,None,0.006103266960053588,0.012403819076098443,1.0,1.0,1,0,0,4.132066551586377,click_2,0.006103266960053588,None,1468.6342866911582,None,1468.6342866911582,None,1468.6342866911582,None,0.0054210599578254914,0.011047423489799257,,,09_control,001,control,18,m/f,18,1,thomas,2023_Apr_17_1018,CPO_EEG,2020.1.3,143.73340955302487,
stimoli/01.full/M03-Anger-Face Forward.mp4,angry,full,maschio,4,6,720,576,36,,,,,,,,,,,,,,,,,0,0,0,0,,,,,,,,,0,47,47,35,,,0.005887860179882409,0.009889371491681231,1474.3789449814644,None,0.006214562602053775,0.012646296036109561,-18.0,136.0,1,0,0,5.929867708932761,click_1,0.006214562602053775,None,1480.4012525410367,None,1480.4012525410367,None,0.005442870055048843,0.011114457464373118,1486.3313566329316,None,0.006165169147152483,0.01252505755655875,3.0,1.0,1,0,0,8.584685398973761,click_2,0.006165169147152483,None,1486.8330844416391,None,1486.8330844416391,None,1486.8330844416391,None,0.005344403882190818,0.01092041174933911,,,09_control,001,control,18,m/f,18,1,thomas,2023_Apr_17_1018,CPO_EEG,2020.1.3,143.73340955302487,
stimoli/01.full/F03-Anger-Face Forward.mp4,angry,full,femmina,2,6,720,576,34,,,,,,,,,,,,,,,,,0,0,0,0,,,,,,,,,0,48,48,33,,,0.0016381627951886912,0.005268260985303641,1497.0202542030943,None,0.00623059943836779,0.01264822045686742,-26.0,147.0,1,0,0,7.811237139259447,click_1,0.00623059943836779,None,1503.0460343791274,None,1503.0460343791274,None,0.005387061865803844,0.011023368235782982,1510.8574726203096,None,0.006126360004145681,0.01249619125155732,0.0,0.0,1,0,0,4.870428459353661,click_2,0.006126360004145681,None,1511.359171883449,None,1511.359171883449,None,1511.359171883449,None,0.005478471830429044,0.011139474928313575,,,09_control,001,control,18,m/f,18,1,thomas,2023_Apr_17_1018,CPO_EEG,2020.1.3,143.73340955302487,
stimoli/01.full/F01-Anger-Face Forward.mp4,angry,full,femmina,1,6,720,576,33,,,,,,,,,,,,,,,,,0,0,0,0,,,,,,,,,0,49,49,32,,,0.0044182124579492665,0.008531660884273151,1517.850361245767,None,0.006254975427964382,0.012716216640910716,-47.0,198.0,1,0,0,5.853184691107799,click_1,0.006254975427964382,None,1523.8727133877428,None,1523.8727133877428,None,0.005517922447324963,0.011236337417813047,1529.7261912322128,None,0.006144962733742432,0.012527302713351673,0.0,0.0,1,0,0,4.201469166617244,click_2,0.006144962733742432,None,1530.2279302667052,None,1530.2279302667052,None,1530.2279302667052,None,0.005473660780353384,0.011134984614727728,,,09_control,001,control,18,m/f,18,1,thomas,2023_Apr_17_1018,CPO_EEG,2020.1.3,143.73340955302487,
stimoli/02.subtle/JF2_Surprise.mp4,surprised,subtle,femmina,6,10,1646,926,22,,,,,,,,,,,,,,,,,0,0,0,0,,,,,,,,,0,50,50,21,,,0.0012788414478563936,0.004994576342141954,1536.052873127459,None,0.0062415044862973446,0.012674200131186808,50.0,-189.0,1,0,0,4.194721507513805,click_1,0.0062415044862973446,None,1546.4793708556804,None,1546.4793708556804,None,0.005447360369089438,0.011123117355964496,1550.6743332364708,None,0.006076966549244389,0.012394838448017254,103.0,-20.0,1,0,0,5.079705961405125,click_2,0.006076966549244389,None,1551.176055592654,None,1551.176055592654,None,1551.176055592654,None,0.005287633482112142,0.010779929065392935,,,09_control,001,control,18,m/f,18,1,thomas,2023_Apr_17_1018,CPO_EEG,2020.1.3,143.73340955302487,
stimoli/02.subtle/JM2_Disgust.mp4,disgusted,subtle,maschio,8,10,1646,926,12,,,,,,,,,,,,,,,,,0,0,0,0,,,,,,,,,0,51,51,11,,,0.002348241819163377,0.005760239039773296,1557.864045798637,None,0.006219694389073993,0.012676124551035173,-29.0,-140.0,1,0,0,6.376190494517687,click_1,0.006219694389073993,None,1568.4901918711198,None,1568.4901918711198,None,0.005439662687422242,0.011077893477704492,1574.8665748076705,None,0.006135340631772124,0.012508699983300176,-40.0,-58.0,1,0,0,2.5084449978230623,click_2,0.006135340631772124,None,1575.3684123083353,None,1575.3684123083353,None,1575.3684123083353,None,0.005467887519444048,0.011138191981444834,,,09_control,001,control,18,m/f,18,1,thomas,2023_Apr_17_1018,CPO_EEG,2020.1.3,143.73340955302487,
stimoli/01.full/M02-Surprise-Face Forward.mp4,surprised,full,maschio,3,6,720,576,51,,,,,,,,,,,,,,,,,0,0,0,0,,,,,,,,,0,52,52,50,,,0.004286774549655092,0.008470785053759755,1579.484344199252,None,0.006225146913493518,0.01265399371732201,25.0,-150.0,1,0,0,6.870734442184585,click_1,0.006225146913493518,None,1585.5102266902982,None,1585.5102266902982,None,0.005546788751416898,0.011325181488246017,1592.3813226027655,None,0.006134057683993888,0.012479512941354187,37.0,47.0,1,0,0,6.3687801933529045,click_2,0.006134057683993888,None,1592.8831023708212,None,1592.8831023708212,None,1592.8831023708212,None,0.005350497879589966,0.010896356495322834,,,09_control,001,control,18,m/f,18,1,thomas,2023_Apr_17_1018,CPO_EEG,2020.1.3,143.73340955302487,
stimoli/02.subtle/JM1_Neutral.mp4,neutral,subtle,maschio,7,10,1646,926,27,,,,,,,,,,,,,,,,,0,0,0,0,,,,,,,,,0,53,53,26,,,0.005858063737832708,0.009284494110943342,1600.856764433633,None,0.006217449232281069,0.012652390034418204,0.0,1.0,1,0,0,2.584987532964078,click_1,0.006217449232281069,None,1611.2808755599258,None,1611.2808755599258,None,0.005448001842523809,0.011105156099802116,1613.866075741335,None,0.006137906525509607,0.012495549778577697,0.0,0.0,1,0,0,0.5710669178679382,click_2,0.006137906525509607,None,1614.3678080403565,None,1614.3678080403565,None,1614.3678080403565,None,0.0054127208022691775,0.011042291701414797,,,09_control,001,control,18,m/f,18,1,thomas,2023_Apr_17_1018,CPO_EEG,2020.1.3,143.73340955302487,
stimoli/01.full/F03-Neutral-Face Forward.mp4,neutral,full,femmina,2,6,720,576,54,,,,,,,,,,,,,,,,,0,0,0,0,,,,,,,,,0,54,54,53,,,0.00224275151049369,0.006121741394963465,1616.541013566522,None,0.0062059027104623965,0.012624806675376021,0.0,0.0,1,0,0,2.612985282675254,click_1,0.0062059027104623965,None,1622.566041935684,None,1622.566041935684,None,0.00539379733709211,0.010993539721312118,1625.1792363387008,None,0.00620269534374529,0.012616788258128508,0.0,0.0,1,0,0,0.3620848143355033,click_2,0.00620269534374529,None,1625.6809593363573,None,1625.6809593363573,None,1625.6809593363573,None,0.0054217014303503674,0.011037159913939831,,,09_control,001,control,18,m/f,18,1,thomas,2023_Apr_17_1018,CPO_EEG,2020.1.3,143.73340955302487,
stimoli/01.full/F03-Joy-Face Forward.mp4,happy,full,femmina,2,6,720,576,42,,,,,,,,,,,,,,,,,0,0,0,0,,,,,,,,,0,55,55,41,,,0.0013684232153536868,0.004958429315593094,1627.6457366713043,None,0.0062113552339724265,0.012629938462850987,157.0,119.0,1,0,0,2.0275419828330996,click_1,0.0062113552339724265,None,1633.6687796801739,None,1633.6687796801739,None,0.00547430225287826,0.011163530181875103,1635.696613854158,None,0.006110002432251349,0.012441666010090557,37.0,50.0,1,0,0,3.6719819155805453,click_2,0.006110002432251349,None,1636.1982797606793,None,1636.1982797606793,None,1636.1982797606793,None,0.005356912613933673,0.010932599744592153,,,09_control,001,control,18,m/f,18,1,thomas,2023_Apr_17_1018,CPO_EEG,2020.1.3,143.73340955302487,
,,,,,,,,,,,,,,,,,,,,,,,,,0,0,0,0,,,,,,,,,,,,,,,,,,,,,,,,,,,,,,,,,,,,,,,,,,,,,,,,,,,,,,,,,,,09_control,001,control,18,m/f,18,1,thomas,2023_Apr_17_1018,CPO_EEG,2020.1.3,143.73340955302487,
,,,,,,,,,,,,,,,,,,,,,,,,,1,0,1,0,,,,,0,0,0,0,,,,,,,,,,,,,,,,,,,,,,,,,,,,,,,,,,,,,,,,,,,,,,,,,,,09_control,001,control,18,m/f,18,1,thomas,2023_Apr_17_1018,CPO_EEG,2020.1.3,143.73340955302487,
stimoli/02.subtle/JF2_Surprise.mp4,surprised,subtle,femmina,6,10,1646,926,22,,,,,,,,,,,,,,,,,1,0,1,0,,,,,,,,,0,0,0,21,,,0.006098327615291055,0.011302922361210221,1671.9997126198991,None,0.005963746488305333,0.012105213191716757,33.0,-143.0,1,0,0,3.371187322431979,click_1,0.005963746488305333,None,1682.4239122695267,None,1682.4239122695267,None,0.0046368586790777044,0.009496982188466063,1685.7956531835366,None,0.005855658213477,0.011929128731935634,66.0,-14.0,1,0,0,3.6172770607172424,click_2,0.005855658213477,None,1686.297193361263,None,1686.297193361263,None,1686.297193361263,None,0.004458208327378088,0.009115946966630872,,,09_control,001,control,18,m/f,18,1,thomas,2023_Apr_17_1018,CPO_EEG,2020.1.3,143.73340955302487,
stimoli/02.subtle/JM1_Sadness.mp4,sad,subtle,maschio,7,10,1646,926,19,,,,,,,,,,,,,,,,,1,0,1,0,,,,,,,,,0,1,1,18,,,0.000517252107783861,0.0029288715013535693,1691.503160539633,None,0.006212317444806104,0.012612297943633166,25.0,-135.0,1,0,0,5.859347967908434,click_1,0.006212317444806104,None,1701.931861729117,None,1701.931861729117,None,0.005455378786791698,0.011151662924021366,1707.7914970771258,None,0.006132774738034641,0.01251447324466426,-52.0,-36.0,1,0,0,2.306805840744346,click_2,0.006132774738034641,None,1708.2933656892533,None,1708.2933656892533,None,1708.2933656892533,None,0.00540085354441544,0.01103780138782895,,,09_control,001,control,18,m/f,18,1,thomas,2023_Apr_17_1018,CPO_EEG,2020.1.3,143.73340955302487,
stimoli/02.subtle/JM2_Neutral.mp4,neutral,subtle,maschio,8,10,1646,926,28,,,,,,,,,,,,,,,,,1,0,1,0,,,,,,,,,0,2,2,27,,,0.006020741401698615,0.009913202228744922,1712.1921257852432,None,0.006219694389983488,0.012643730142372078,-21.0,-101.0,1,0,0,2.8921744089311687,click_1,0.006219694389983488,None,1723.1743787810851,None,1723.1743787810851,None,0.005440624897346424,0.011122796618110442,1726.0668226088596,None,0.006126680740635493,0.012503247459790146,2.0,0.0,1,0,0,2.1745003403020746,click_2,0.006126680740635493,None,1726.5686674864696,None,1726.5686674864696,None,1726.5686674864696,None,0.005231825293776637,0.01068819836473267,,,09_control,001,control,18,m/f,18,1,thomas,2023_Apr_17_1018,CPO_EEG,2020.1.3,143.73340955302487,
stimoli/02.subtle/JM2_Anger.mp4,angry,subtle,maschio,8,10,1646,926,8,,,,,,,,,,,,,,,,,1,0,1,0,,,,,,,,,0,3,3,7,,,0.00650216721896868,0.01019833717327856,1730.3343952926111,None,0.00620109165993199,0.012594015951435722,-30.0,150.0,1,0,0,4.690293416365421,click_1,0.00620109165993199,None,1741.319872654693,None,1741.319872654693,None,0.005460189839141094,0.011137550509374705,1746.01046114884,None,0.006159716623187705,0.012535000394564122,11.0,63.0,1,0,0,2.3693802917550784,click_2,0.006159716623187705,None,1746.5122980080328,None,1746.5122980080328,None,1746.5122980080328,None,0.005393155863202992,0.011010538767550315,,,09_control,001,control,18,m/f,18,1,thomas,2023_Apr_17_1018,CPO_EEG,2020.1.3,143.73340955302487,
stimoli/01.full/M03-Sadness-Face Forward.mp4,sad,full,maschio,4,6,720,576,48,,,,,,,,,,,,,,,,,1,0,1,0,,,,,,,,,0,4,4,47,,,0.0033118311439466197,0.0070743935993959894,1750.4693340415201,None,0.006137585789474542,0.012492342410951096,-19.0,-94.0,1,0,0,3.442514357779146,click_1,0.006137585789474542,None,1756.4934765358635,None,1756.4934765358635,None,0.00546724604555493,0.011138512718389393,1759.9363254220411,None,0.006136944316494919,0.012486889887441066,0.0,0.0,1,0,0,2.1114030884382373,click_2,0.006136944316494919,None,1760.4380663809538,None,1760.4380663809538,None,1760.4380663809538,None,0.005335102517165069,0.010851453354916885,,,09_control,001,control,18,m/f,18,1,thomas,2023_Apr_17_1018,CPO_EEG,2020.1.3,143.73340955302487,
stimoli/01.full/F03-Joy-Face Forward.mp4,happy,full,femmina,2,6,720,576,42,,,,,,,,,,,,,,,,,1,0,1,0,,,,,,,,,0,5,5,41,,,0.006374866813530389,0.009997908796322008,1764.133837980488,None,0.006205581974427332,0.012635711725124565,112.0,173.0,1,0,0,2.8642324674083284,click_1,0.006205581974427332,None,1770.1559008179424,None,1770.1559008179424,None,0.005446077422675444,0.011105476836746675,1773.0203600462114,None,0.0061279636865947396,0.012479192204409628,2.0,-6.0,1,0,0,4.439679045180128,click_2,0.0061279636865947396,None,1773.522178944147,None,1773.522178944147,None,1773.522178944147,None,0.005362365138353198,0.010939335215880419,,,09_control,001,control,18,m/f,18,1,thomas,2023_Apr_17_1018,CPO_EEG,2020.1.3,143.73340955302487,
stimoli/02.subtle/JM1_Surprise.mp4,surprised,subtle,maschio,7,10,1646,926,23,,,,,,,,,,,,,,,,,1,0,1,0,,,,,,,,,0,6,6,22,,,0.006137521642813226,0.009913555039929633,1779.54676148927,None,0.0062248261774584535,0.012654314454266569,39.0,-197.0,1,0,0,3.547313797901552,click_1,0.0062248261774584535,None,1789.9706381570209,None,1789.9706381570209,None,0.005452812893054215,0.01114300303197524,1793.5182210530297,None,0.006157471465485287,0.012520567242063407,-13.0,-66.0,1,0,0,5.052695760052302,click_2,0.006157471465485287,None,1794.019996010035,None,1794.019996010035,None,1794.019996010035,None,0.00529885926789575,0.010832529888830322,,,09_control,001,control,18,m/f,18,1,thomas,2023_Apr_17_1018,CPO_EEG,2020.1.3,143.73340955302487,
stimoli/01.full/F01-Fear-Face Forward.mp4,fear,full,femmina,1,6,720,576,29,,,,,,,,,,,,,,,,,1,0,1,0,,,,,,,,,0,7,7,28,,,0.004792993314367777,0.008401922881603241,1800.658749601485,None,0.00620461976268416,0.012609411312951124,23.0,-142.0,1,0,0,5.408193283644323,click_1,0.00620461976268416,None,1806.6852767733376,None,1806.6852767733376,None,0.005464359414872888,0.011112212307125446,1812.0937064399445,None,0.00616356546379393,0.012550716494843073,-57.0,-81.0,1,0,0,2.4181056519582853,click_2,0.00616356546379393,None,1812.59554586503,None,1812.59554586503,None,1812.59554586503,None,0.005369742082621087,0.010979748041791026,,,09_control,001,control,18,m/f,18,1,thomas,2023_Apr_17_1018,CPO_EEG,2020.1.3,143.73340955302487,
stimoli/02.subtle/JF1_Fear.mp4,fear,subtle,femmina,5,10,1646,926,1,,,,,,,,,,,,,,,,,1,0,1,0,,,,,,,,,0,8,8,0,,,0.00394721058455616,0.007495200175071659,1816.6004428732617,None,0.006210072287103685,0.012628014043002622,-121.0,-84.0,1,0,0,7.011562237998078,click_1,0.006210072287103685,None,1827.4222717012067,None,1827.4222717012067,None,0.005433889426967653,0.01110740125659504,1834.434103999523,None,0.006125718529801816,0.012464759052818408,-62.0,-13.0,1,0,0,3.456806706733005,click_2,0.006125718529801816,None,1834.935879277265,None,1834.935879277265,None,1834.935879277265,None,0.005372307977268065,0.010977502885907597,,,09_control,001,control,18,m/f,18,1,thomas,2023_Apr_17_1018,CPO_EEG,2020.1.3,143.73340955302487,
stimoli/02.subtle/JF2_Happiness.mp4,happy,subtle,femmina,6,9,1646,926,14,,,,,,,,,,,,,,,,,1,0,1,0,,,,,,,,,0,9,9,13,,,0.0037239778284856584,0.0076052128706578515,1839.9801977149432,None,0.006222901756700594,0.012669709816691466,160.0,109.0,1,0,0,5.742690249795487,click_1,0.006222901756700594,None,1849.4821038532668,None,1849.4821038532668,None,0.005443190791083907,0.011119589251393336,1855.2250372214962,None,0.006142076102150895,0.012540773654109216,133.0,27.0,1,0,0,2.0766134179566507,click_2,0.006142076102150895,None,1855.7268532328012,None,1855.7268532328012,None,1855.7268532328012,None,0.005379364184591395,0.010997067824973783,,,09_control,001,control,18,m/f,18,1,thomas,2023_Apr_17_1018,CPO_EEG,2020.1.3,143.73340955302487,
stimoli/01.full/M02-Sadness-Face Forward.mp4,sad,full,maschio,3,6,720,576,47,,,,,,,,,,,,,,,,,1,0,1,0,,,,,,,,,0,10,10,46,,,0.0014580049792130012,0.005131723363774654,1859.3859508336268,None,0.00622963722798886,0.012678369707828097,-80.0,56.0,1,0,0,5.3593777964233595,click_1,0.00622963722798886,None,1865.0515917842645,None,1865.0515917842645,None,0.0054422285820692196,0.011086232632806059,1870.4112187931191,None,0.0061330954749792,0.012501323039032286,17.0,-60.0,1,0,0,3.0244718909543735,click_2,0.0061330954749792,None,1870.9129517336137,None,1870.9129517336137,None,1870.9129517336137,None,0.0054723778330298956,0.011177321861396194,,,09_control,001,control,18,m/f,18,1,thomas,2023_Apr_17_1018,CPO_EEG,2020.1.3,143.73340955302487,
stimoli/02.subtle/JF1_Anger.mp4,angry,subtle,femmina,5,10,1646,926,5,,,,,,,,,,,,,,,,,1,0,1,0,,,,,,,,,0,11,11,4,,,0.00523208188405988,0.00867936014492443,1875.5228646792534,None,0.006226109124327195,0.012644050879316637,-31.0,191.0,1,0,0,3.5333389782999802,click_1,0.006226109124327195,None,1886.344337168703,None,1886.344337168703,None,0.005473340042954078,0.011132097983136191,1889.8779147751216,None,0.006150094522126892,0.012537887026155659,0.0,-3.0,1,0,0,6.153653736487286,click_2,0.006150094522126892,None,1890.379697109072,None,1890.379697109072,None,1890.379697109072,None,0.005370062820475141,0.010931316797723412,,,09_control,001,control,18,m/f,18,1,thomas,2023_Apr_17_1018,CPO_EEG,2020.1.3,143.73340955302487,
stimoli/02.subtle/JF2_Anger.mp4,angry,subtle,femmina,6,9,1646,926,6,,,,,,,,,,,,,,,,,1,0,1,0,,,,,,,,,0,12,12,5,,,0.0021594241115963086,0.0057651463112051715,1898.1219068952619,None,0.006228354280210624,0.012649182666791603,-32.0,141.0,1,0,0,4.982848603929597,click_1,0.006228354280210624,None,1907.624294138665,None,1907.624294138665,None,0.005477509621414356,0.011136267561596469,1912.607372710822,None,0.006137585789474542,0.01248400325584953,1.0,0.0,1,0,0,3.9793022180228945,click_2,0.006137585789474542,None,1913.1091736475014,None,1913.1091736475014,None,1913.1091736475014,None,0.0053277255728971795,0.010850491144992702,,,09_control,001,control,18,m/f,18,1,thomas,2023_Apr_17_1018,CPO_EEG,2020.1.3,143.73340955302487,
stimoli/02.subtle/JM2_Happiness.mp4,happy,subtle,maschio,8,10,1646,926,16,,,,,,,,,,,,,,,,,1,0,1,0,,,,,,,,,0,13,13,15,,,0.0003286589171693777,0.003599531981308246,1918.678496399089,None,0.0062270713333418826,0.012648541192902485,25.0,140.0,1,0,0,2.7876293130266276,click_1,0.0062270713333418826,None,1929.3041138974581,None,1929.3041138974581,None,0.005448643315503432,0.01121805542425136,1932.0920841536176,None,0.006065740764825023,0.012348331624707498,97.0,17.0,1,0,0,2.3555257484231333,click_2,0.006065740764825023,None,1932.5938417908396,None,1932.5938417908396,None,1932.5938417908396,None,0.0053860996558796614,0.011015029081136163,,,09_control,001,control,18,m/f,18,1,thomas,2023_Apr_17_1018,CPO_EEG,2020.1.3,143.73340955302487,
stimoli/02.subtle/JM2_Sadness.mp4,sad,subtle,maschio,8,10,1646,926,20,,,,,,,,,,,,,,,,,1,0,1,0,,,,,,,,,0,14,14,19,,,0.0017392590089002624,0.005803634717267414,1936.5390743923158,None,0.006225146913493518,0.01266104992464534,-154.0,-97.0,1,0,0,2.0382571551554065,click_1,0.006225146913493518,None,1947.1646691183782,None,1947.1646691183782,None,0.005433247953078535,0.011072120217249903,1949.203146298923,None,0.006101984013184847,0.01241921443852334,-98.0,-23.0,1,0,0,3.6313205179767465,click_2,0.006101984013184847,None,1949.7040844538274,None,1949.7040844538274,None,1949.7040844538274,None,0.005353063773327449,0.01090886522706569,,,09_control,001,control,18,m/f,18,1,thomas,2023_Apr_17_1018,CPO_EEG,2020.1.3,143.73340955302487,
stimoli/01.full/F01-Neutral-Face Forward.mp4,neutral,full,femmina,1,6,720,576,53,,,,,,,,,,,,,,,,,1,0,1,0,,,,,,,,,0,15,15,52,,,0.0008742641502976767,0.004819325799871876,1954.9162062491055,None,0.006155547045636922,0.012509662193224358,2.0,0.0,1,0,0,1.0171831490051773,click_1,0.006155547045636922,None,1960.9409465966942,None,1960.9409465966942,None,0.005437417530629318,0.011106759782705922,1961.95845144463,None,0.006132774738034641,0.01250517187963851,0.0,0.0,1,0,0,0.9056787077643094,click_2,0.006132774738034641,None,1962.460218062481,None,1962.460218062481,None,1962.460218062481,None,0.005366213979868917,0.010933882692370389,,,09_control,001,control,18,m/f,18,1,thomas,2023_Apr_17_1018,CPO_EEG,2020.1.3,143.73340955302487,
stimoli/02.subtle/JM1_Fear.mp4,fear,subtle,maschio,7,10,1646,926,3,,,,,,,,,,,,,,,,,1,0,1,0,,,,,,,,,0,16,16,2,,,0.005731468955673336,0.009292929487855872,1964.9508294572302,None,0.006223863966624776,0.012687671072853846,-98.0,-160.0,1,0,0,5.101661993532616,click_1,0.006223863966624776,None,1975.3778438923068,None,1975.3778438923068,None,0.00544928478939255,0.011093288841038884,1980.4797021767113,None,0.006138868736343284,0.012491059464082355,37.0,-53.0,1,0,0,6.461032733748652,click_2,0.006138868736343284,None,1980.9815460921113,None,1980.9815460921113,None,1980.9815460921113,None,0.005347931985852483,0.010934203428405453,,,09_control,001,control,18,m/f,18,1,thomas,2023_Apr_17_1018,CPO_EEG,2020.1.3,143.73340955302487,
stimoli/01.full/F03-Anger-Face Forward.mp4,angry,full,femmina,2,6,720,576,34,,,,,,,,,,,,,,,,,1,0,1,0,,,,,,,,,0,17,17,33,,,0.006427146900932712,0.010669852224964416,1989.0276766922548,None,0.006213600391674845,0.012633466568331642,-39.0,201.0,1,0,0,4.341604491853104,click_1,0.006213600391674845,None,1995.0501468653433,None,1995.0501468653433,None,0.005548713172174757,0.011329030329761736,1999.3921202044244,None,0.006139189473287843,0.012493304620875278,22.0,97.0,1,0,0,4.453119517406776,click_2,0.006139189473287843,None,1999.893841919134,None,1999.893841919134,None,1999.893841919134,None,0.005346649038983742,0.010879036712140078,,,09_control,001,control,18,m/f,18,1,thomas,2023_Apr_17_1018,CPO_EEG,2020.1.3,143.73340955302487,
stimoli/01.full/M03-Joy-Face Forward.mp4,happy,full,maschio,4,6,720,576,44,,,,,,,,,,,,,,,,,1,0,1,0,,,,,,,,,0,18,18,43,,,0.00295196454408142,0.006850840105471434,2005.9350411922164,None,0.006193714713845111,0.01257348879971687,174.0,117.0,1,0,0,3.101151380675219,click_1,0.006193714713845111,None,2011.9563996918364,None,2011.9563996918364,None,0.005470132676236972,0.011168982706294628,2015.0578596212358,None,0.00613822726336366,0.012476305575546576,139.0,25.0,1,0,0,3.644847589118399,click_2,0.00613822726336366,None,2015.559616296248,None,2015.559616296248,None,2015.559616296248,None,0.005343762409211195,0.010928109431006305,,,09_control,001,control,18,m/f,18,1,thomas,2023_Apr_17_1018,CPO_EEG,2020.1.3,143.73340955302487,
stimoli/02.subtle/JF2_Fear.mp4,fear,subtle,femmina,6,10,1646,926,2,,,,,,,,,,,,,,,,,1,0,1,0,,,,,,,,,0,19,19,1,,,0.0007924442134026322,0.0042916818219964625,2020.794301278264,None,0.006207827130310761,0.012624485939340957,-81.0,-125.0,1,0,0,3.4148190627938675,click_1,0.006207827130310761,None,2031.221195437071,None,2031.221195437071,None,0.005477188884469797,0.011138191982354329,2034.6362486376706,None,0.0061311710542213405,0.012476947047616704,-64.0,-12.0,1,0,0,2.5158729395070623,click_2,0.0061311710542213405,None,2035.1381034581186,None,2035.1381034581186,None,2035.1381034581186,None,0.00535979924552521,0.010963069733406883,,,09_control,001,control,18,m/f,18,1,thomas,2023_Apr_17_1018,CPO_EEG,2020.1.3,143.73340955302487,
stimoli/02.subtle/JF1_Neutral.mp4,neutral,subtle,femmina,5,10,1646,926,25,,,,,,,,,,,,,,,,,1,0,1,0,,,,,,,,,0,20,20,24,,,0.0037537742709901067,0.00783162092193379,2039.2483621579418,None,0.006214883338543586,0.012630259199795546,64.0,-18.0,1,0,0,6.5717994805354465,click_1,0.006214883338543586,None,2050.0713485247074,None,2050.0713485247074,None,0.00545826541747374,0.011117344095509907,2056.6433872748344,None,0.006138868735433789,0.012494908304688579,61.0,17.0,1,0,0,1.6167491280766626,click_2,0.006138868735433789,None,2057.1451516475286,None,2057.1451516475286,None,2057.1451516475286,None,0.005344083145246259,0.010905016386459465,,,09_control,001,control,18,m/f,18,1,thomas,2023_Apr_17_1018,CPO_EEG,2020.1.3,143.73340955302487,
stimoli/01.full/M03-Neutral-Face Forward.mp4,neutral,full,maschio,4,6,720,576,56,,,,,,,,,,,,,,,,,1,0,1,0,,,,,,,,,0,21,21,55,,,0.0039282871193790925,0.007638890226189687,2060.3487982957336,None,0.0062059027104623965,0.012699538331617077,0.0,0.0,1,0,0,0.9963775994910975,click_1,0.0062059027104623965,None,2066.3724760425707,None,2066.3724760425707,None,0.005460189837322105,0.011115740410787112,2067.3690114445276,None,0.006198846503139066,0.012594978161359904,0.0,0.0,1,0,0,0.7036347809462313,click_2,0.006198846503139066,None,2067.870881018865,None,2067.870881018865,None,2067.870881018865,None,0.005428436902548128,0.01104293317621341,,,09_control,001,control,18,m/f,18,1,thomas,2023_Apr_17_1018,CPO_EEG,2020.1.3,143.73340955302487,
stimoli/01.full/F03-Sadness-Face Forward.mp4,sad,full,femmina,2,6,720,576,46,,,,,,,,,,,,,,,,,1,0,1,0,,,,,,,,,0,22,22,45,,,0.0004059885395690799,0.004222755501359643,2070.158284212505,None,0.006223863967534271,0.0126337873052762,-37.0,-188.0,1,0,0,1.9930861992770588,click_1,0.006223863967534271,None,2076.1834719878166,None,2076.1834719878166,None,0.005448964052447991,0.0110875155796748,2078.1767852686903,None,0.0061417553670253255,0.012494908304688579,0.0,-2.0,1,0,0,5.073941039610872,click_2,0.0061417553670253255,None,2078.6785589427486,None,2078.6785589427486,None,2078.6785589427486,None,0.005349535668756289,0.010936127847344324,,,09_control,001,control,18,m/f,18,1,thomas,2023_Apr_17_1018,CPO_EEG,2020.1.3,143.73340955302487,
stimoli/01.full/F01-Anger-Face Forward.mp4,angry,full,femmina,1,6,720,576,33,,,,,,,,,,,,,,,,,1,0,1,0,,,,,,,,,0,23,23,32,,,0.0006426922382161138,0.004668900276556087,2085.336349541443,None,0.006204299026649096,0.012614222364391026,-38.0,189.0,1,0,0,2.2856968742926256,click_1,0.006204299026649096,None,2091.358454395408,None,2091.358454395408,None,0.00546371794098377,0.01116481312783435,2093.644466553895,None,0.006137585789474542,0.012480795890041918,30.0,144.0,1,0,0,3.81885399487237,click_2,0.006137585789474542,None,2094.146234133956,None,2094.146234133956,None,2094.146234133956,None,0.005354667456231255,0.010910468909969495,,,09_control,001,control,18,m/f,18,1,thomas,2023_Apr_17_1018,CPO_EEG,2020.1.3,143.73340955302487,
stimoli/01.full/M02-Neutral-Face Forward.mp4,neutral,full,maschio,3,6,720,576,55,,,,,,,,,,,,,,,,,1,0,1,0,,,,,,,,,0,24,24,54,,,0.005827689971738437,0.009462919949328352,2099.5500262683368,None,0.006193073241774982,0.012609411313860619,4.0,3.0,1,0,0,3.170715967748947,click_1,0.006193073241774982,None,2105.5757923319547,None,2105.5757923319547,None,0.005444794475806702,0.011091685158135078,2108.746739871616,None,0.006147849363514979,0.012485606938753335,0.0,0.0,1,0,0,0.6199571367451426,click_2,0.006147849363514979,None,2109.248574806387,None,2109.248574806387,None,2109.248574806387,None,0.0054027779651733,0.010993218984367559,,,09_control,001,control,18,m/f,18,1,thomas,2023_Apr_17_1018,CPO_EEG,2020.1.3,143.73340955302487,
stimoli/02.subtle/JM1_Neutral.mp4,neutral,subtle,maschio,7,10,1646,926,27,,,,,,,,,,,,,,,,,1,0,1,0,,,,,,,,,0,25,25,26,,,0.0005894178693779395,0.003904552601852629,2111.458435407794,None,0.006212317444806104,0.012708198222753708,96.0,-20.0,1,0,0,3.6240638497001783,click_1,0.006212317444806104,None,2121.881782859958,None,2121.881782859958,None,0.005455699523736257,0.011115740411696606,2125.506015737909,None,0.006157792202429846,0.012509982930168917,3.0,0.0,1,0,0,6.516609671751212,click_2,0.006157792202429846,None,2126.0078458616304,None,2126.0078458616304,None,2126.0078458616304,None,0.005347611248907924,0.010898922389060317,,,09_control,001,control,18,m/f,18,1,thomas,2023_Apr_17_1018,CPO_EEG,2020.1.3,143.73340955302487,
stimoli/01.full/M03-Fear-Face Forward.mp4,fear,full,maschio,4,6,720,576,32,,,,,,,,,,,,,,,,,1,0,1,0,,,,,,,,,0,26,26,31,,,0.004655076525523327,0.008713037499546772,2134.1111131424436,None,0.0061751119856126024,0.012577979115121707,46.0,-205.0,1,0,0,7.387443863055523,click_1,0.0061751119856126024,None,2140.137914864928,None,2140.137914864928,None,0.005465321625706565,0.011115098938716983,2147.525616279569,None,0.006152660415864375,0.012499077883148857,-84.0,55.0,1,0,0,5.324417494007321,click_2,0.006152660415864375,None,2148.0273992549924,None,2148.0273992549924,None,2148.0273992549924,None,0.005384816708101425,0.01095505131434038,,,09_control,001,control,18,m/f,18,1,thomas,2023_Apr_17_1018,CPO_EEG,2020.1.3,143.73340955302487,
stimoli/02.subtle/JF1_Happiness.mp4,happy,subtle,femmina,5,10,1646,926,13,,,,,,,,,,,,,,,,,1,0,1,0,,,,,,,,,0,27,27,12,,,0.005839525156261516,0.009318877087935107,2154.9434088924895,None,0.006213921128619404,0.012629938463760482,168.0,106.0,1,0,0,5.38008071018794,click_1,0.006213921128619404,None,2165.7650157706244,None,2165.7650157706244,None,0.005446077422675444,0.011136909035485587,2171.1453755217585,None,0.006110002432251349,0.01238521634695644,26.0,146.0,1,0,0,1.1635102966110935,click_2,0.006110002432251349,None,2171.6472624158782,None,2171.6472624158782,None,2171.6472624158782,None,0.005427153955679387,0.011066026219850755,,,09_control,001,control,18,m/f,18,1,thomas,2023_Apr_17_1018,CPO_EEG,2020.1.3,143.73340955302487,
stimoli/01.full/M03-Surprise-Face Forward.mp4,surprised,full,maschio,4,6,720,576,52,,,,,,,,,,,,,,,,,1,0,1,0,,,,,,,,,0,28,28,51,,,0.00039187612492241897,0.0043943496466454235,2174.39492857514,None,0.006195318398567906,0.01261775046805269,33.0,-198.0,1,0,0,2.5227007827907073,click_1,0.006195318398567906,None,2180.4171466491675,None,2180.4171466491675,None,0.005370704293454764,0.010936127849163313,2182.940093437021,None,0.006149132311293215,0.012540452918983647,38.0,-52.0,1,0,0,5.199017455133799,click_2,0.006149132311293215,None,2183.44192869253,None,2183.44192869253,None,2183.44192869253,None,0.005363648086131434,0.010968201520881848,,,09_control,001,control,18,m/f,18,1,thomas,2023_Apr_17_1018,CPO_EEG,2020.1.3,143.73340955302487,
stimoli/01.full/F01-Joy-Face Forward.mp4,happy,full,femmina,1,6,720,576,41,,,,,,,,,,,,,,,,,1,0,1,0,,,,,,,,,0,29,29,40,,,0.00581482842881087,0.009477962501478032,2190.2326925655148,None,0.006238297119125491,0.012646296036109561,79.0,121.0,1,0,0,3.55418975169232,click_1,0.006238297119125491,None,2196.2560155775404,None,2196.2560155775404,None,0.005380647131460137,0.010962428259517765,2199.8104041859992,None,0.006140151683212025,0.012520246506028343,66.0,9.0,1,0,0,2.508657004793349,click_2,0.006140151683212025,None,2200.3122153862537,None,2200.3122153862537,None,2200.3122153862537,None,0.005381930078328878,0.010973974781336437,,,09_control,001,control,18,m/f,18,1,thomas,2023_Apr_17_1018,CPO_EEG,2020.1.3,143.73340955302487,
stimoli/01.full/M03-Disgust-Face Forward.mp4,disgusted,full,maschio,4,6,720,576,40,,,,,,,,,,,,,,,,,1,0,1,0,,,,,,,,,0,30,30,39,,,0.005107956772917532,0.008704377607500646,2204.4064497588383,None,0.006201412395967054,0.012608449103026942,-86.0,119.0,1,0,0,3.8120130013840026,click_1,0.006201412395967054,None,2210.432840296848,None,2210.432840296848,None,0.005458586154418299,0.011098741365458409,2214.2451124535014,None,0.006080173916416243,0.012371745404379908,-117.0,77.0,1,0,0,1.700321891371459,click_2,0.006080173916416243,None,2214.74696919837,None,2214.74696919837,None,2214.74696919837,None,0.005372307977268065,0.010971088150654396,,,09_control,001,control,18,m/f,18,1,thomas,2023_Apr_17_1018,CPO_EEG,2020.1.3,143.73340955302487,
stimoli/02.subtle/JF1_Sadness.mp4,sad,subtle,femmina,5,10,1646,926,17,,,,,,,,,,,,,,,,,1,0,1,0,,,,,,,,,0,31,31,16,,,0.0010798243138196995,0.005137143814863521,2218.037492198079,None,0.0062116759709169855,0.012659766977776599,-27.0,-132.0,1,0,0,3.4915007976724155,click_1,0.0062116759709169855,None,2228.8622653891084,None,2228.8622653891084,None,0.005437417530629318,0.011075648321821063,2232.3539737034375,None,0.0061353406326816184,0.012513190297795518,-34.0,-54.0,1,0,0,2.5505689548663213,click_2,0.0061353406326816184,None,2232.855831731253,None,2232.855831731253,None,2232.855831731253,None,0.005407909752648266,0.010998350771842524,,,09_control,001,control,18,m/f,18,1,thomas,2023_Apr_17_1018,CPO_EEG,2020.1.3,143.73340955302487,
stimoli/01.full/F03-Surprise-Face Forward.mp4,surprised,full,femmina,2,6,720,576,50,,,,,,,,,,,,,,,,,1,0,1,0,,,,,,,,,0,32,32,49,,,0.0052384966184035875,0.008943005727815034,2236.992032899889,None,0.006215845548467769,0.012620957835679292,50.0,-214.0,1,0,0,2.1671830527848215,click_1,0.006215845548467769,None,2243.018355120979,None,2243.018355120979,None,0.005464038677928329,0.011112212307125446,2245.185796687559,None,0.006131491792075394,0.012475984838602017,39.0,-56.0,1,0,0,5.010759754726678,click_2,0.006131491792075394,None,2245.687552721098,None,2245.687552721098,None,2245.687552721098,None,0.005298538530951191,0.010784098642943718,,,09_control,001,control,18,m/f,18,1,thomas,2023_Apr_17_1018,CPO_EEG,2020.1.3,143.73340955302487,
stimoli/01.full/F03-Fear-Face Forward.mp4,fear,full,femmina,2,6,720,576,30,,,,,,,,,,,,,,,,,1,0,1,0,,,,,,,,,0,33,33,29,,,0.002769465350866085,0.006395073227395187,2252.286281256595,None,0.006195318398567906,0.012614543101335585,-105.0,-166.0,1,0,0,4.725309847708559,click_1,0.006195318398567906,None,2258.3107098480928,None,2258.3107098480928,None,0.005463076468913641,0.011119268515358272,2263.0362621727604,None,0.0061622825160156935,0.012518963558250107,20.0,-96.0,1,0,0,3.435962668811044,click_2,0.0061622825160156935,None,2263.538071448594,None,2263.538071448594,None,2263.538071448594,None,0.005368779872696905,0.010946712160148309,,,09_control,001,control,18,m/f,18,1,thomas,2023_Apr_17_1018,CPO_EEG,2020.1.3,143.73340955302487,
stimoli/01.full/F01-Disgust-Face Forward.mp4,disgusted,full,femmina,1,6,720,576,37,,,,,,,,,,,,,,,,,1,0,1,0,,,,,,,,,0,34,34,36,,,0.005562761441979092,0.009574215591783286,2268.5598151530135,None,0.00621360039076535,0.012646296036109561,-165.0,111.0,1,0,0,4.083913385690721,click_1,0.00621360039076535,None,2274.5829598354235,None,2274.5829598354235,None,0.005469811939292413,0.011122155145130819,2278.6671025478686,None,0.00615105673114158,0.012481116626076982,-35.0,55.0,1,0,0,2.4110632358097064,click_2,0.00615105673114158,None,2279.1688508837256,None,2279.1688508837256,None,2279.1688508837256,None,0.005357233350878232,0.010905978596383648,,,09_control,001,control,18,m/f,18,1,thomas,2023_Apr_17_1018,CPO_EEG,2020.1.3,143.73340955302487,
stimoli/01.full/M02-Fear-Face Forward.mp4,fear,full,maschio,3,6,720,576,31,,,,,,,,,,,,,,,,,1,0,1,0,,,,,,,,,0,35,35,30,,,0.0012649214741031756,0.0051391003080425435,2283.1628011477237,None,0.00621905291609437,0.012623202992472216,43.0,-195.0,1,0,0,3.7910320088831213,click_1,0.00621905291609437,None,2289.187621679493,None,2289.187621679493,None,0.005421059958280239,0.011058649275582866,2292.978918616906,None,0.006146245681520668,0.012504530406658887,-51.0,-78.0,1,0,0,1.8814108053629752,click_2,0.006146245681520668,None,2293.480692932438,None,2293.480692932438,None,2293.480692932438,None,0.005393155864112487,0.0110227267641676,,,09_control,001,control,18,m/f,18,1,thomas,2023_Apr_17_1018,CPO_EEG,2020.1.3,143.73340955302487,
stimoli/02.subtle/JM2_Disgust.mp4,disgusted,subtle,maschio,8,10,1646,926,12,,,,,,,,,,,,,,,,,1,0,1,0,,,,,,,,,0,36,36,11,,,0.0003600911159082898,0.004064920962264296,2296.9526105082327,None,0.0062052612365732784,0.012611977207598102,-27.0,-143.0,1,0,0,5.986981296558952,click_1,0.0062052612365732784,None,2307.578559327633,None,2307.578559327633,None,0.005436455319795641,0.011073082426264591,2313.565782780415,None,0.006134699157883006,0.012478550731430005,-53.0,-37.0,1,0,0,3.164113602380894,click_2,0.006134699157883006,None,2314.0676671086417,None,2314.0676671086417,None,2314.0676671086417,None,0.005358516298656468,0.010924260590400081,,,09_control,001,control,18,m/f,18,1,thomas,2023_Apr_17_1018,CPO_EEG,2020.1.3,143.73340955302487,
stimoli/02.subtle/JM1_Disgust.mp4,disgusted,subtle,maschio,7,10,1646,926,11,,,,,,,,,,,,,,,,,1,0,1,0,,,,,,,,,0,37,37,10,,,0.005222748444793979,0.009098530961637152,2318.8245172431266,None,0.00623701417225675,0.012662653609368135,-31.0,-145.0,1,0,0,3.463678170210187,click_1,0.00623701417225675,None,2329.249523224866,None,2329.249523224866,None,0.005448001842523809,0.011132418720990245,2332.7134621540295,None,0.006160678833111888,0.012549433547064837,1.0,1.0,1,0,0,9.47114395882727,click_2,0.006160678833111888,None,2333.2152088862035,None,2333.2152088862035,None,2333.2152088862035,None,0.0053437624083017,0.01092105322277348,,,09_control,001,control,18,m/f,18,1,thomas,2023_Apr_17_1018,CPO_EEG,2020.1.3,143.73340955302487,
stimoli/01.full/M02-Anger-Face Forward.mp4,angry,full,maschio,3,6,720,576,35,,,,,,,,,,,,,,,,,1,0,1,0,,,,,,,,,0,38,38,34,,,0.003194152842297626,0.006706219919578871,2344.2669273614724,None,0.00623508975149889,0.012692161387349188,-40.0,199.0,1,0,0,3.7631846846934423,click_1,0.00623508975149889,None,2350.293940449455,None,2350.293940449455,None,0.0054508884732058505,0.011140116402202693,2354.057362158584,None,0.00616164104303607,0.012551357966913201,12.0,61.0,1,0,0,3.3871590488488437,click_2,0.00616164104303607,None,2354.5591236446467,None,2354.5591236446467,None,2354.5591236446467,None,0.005367817663682217,0.010925543537268823,,,09_control,001,control,18,m/f,18,1,thomas,2023_Apr_17_1018,CPO_EEG,2020.1.3,143.73340955302487,
stimoli/02.subtle/JF2_Neutral.mp4,neutral,subtle,femmina,6,9,1646,926,26,,,,,,,,,,,,,,,,,1,0,1,0,,,,,,,,,0,39,39,25,,,0.0037878044349781703,0.008060017537900421,2359.533916625131,None,0.006239580065994232,0.01269665170184453,61.0,-14.0,1,0,0,3.819076586155461,click_1,0.006239580065994232,None,2369.036044713265,None,2369.036044713265,None,0.005470132675327477,0.011153908079904795,2372.855377247322,None,0.006134699157883006,0.012485927675697894,-3.0,0.0,1,0,0,0.9056780662913297,click_2,0.006134699157883006,None,2373.357163109376,None,2373.357163109376,None,2373.357163109376,None,0.005414003750956908,0.011041970966289227,,,09_control,001,control,18,m/f,18,1,thomas,2023_Apr_17_1018,CPO_EEG,2020.1.3,143.73340955302487,
stimoli/01.full/M03-Anger-Face Forward.mp4,angry,full,maschio,4,6,720,576,36,,,,,,,,,,,,,,,,,1,0,1,0,,,,,,,,,0,40,40,35,,,0.006711640369758243,0.010439883996696153,2375.846989661373,None,0.006201412395967054,0.01258567679542466,-41.0,188.0,1,0,0,4.111622151616757,click_1,0.006201412395967054,None,2381.8689912381146,None,2381.8689912381146,None,0.005455378787701193,0.011109967150332523,2385.9808735072106,None,0.006143038312984572,0.012500040092163545,0.0,1.0,1,0,0,5.150050900917449,click_2,0.006143038312984572,None,2386.482654878951,None,2386.482654878951,None,2386.482654878951,None,0.005351460089514148,0.010906299333328207,,,09_control,001,control,18,m/f,18,1,thomas,2023_Apr_17_1018,CPO_EEG,2020.1.3,143.73340955302487,
stimoli/01.full/F01-Sadness-Face Forward.mp4,sad,full,femmina,1,6,720,576,45,,,,,,,,,,,,,,,,,1,0,1,0,,,,,,,,,0,41,41,44,,,0.0021109928675286938,0.005933533089773846,2393.2215498511464,None,0.006234127542484202,0.012663295082347759,-36.0,-197.0,1,0,0,4.606766839158809,click_1,0.006234127542484202,None,2399.2465791825193,None,2399.2465791825193,None,0.005444153001917584,0.011132739457025309,2403.8536164027323,None,0.00614913231038372,0.01251447324466426,-64.0,-14.0,1,0,0,2.299837514778119,click_2,0.00614913231038372,None,2404.355434659195,None,2404.355434659195,None,2404.355434659195,None,0.005356912613933673,0.010948315843052114,,,09_control,001,control,18,m/f,18,1,thomas,2023_Apr_17_1018,CPO_EEG,2020.1.3,143.73340955302487,
stimoli/01.full/F03-Disgust-Face Forward.mp4,disgusted,full,femmina,2,6,720,576,38,,,,,,,,,,,,,,,,,1,0,1,0,,,,,,,,,0,42,42,37,,,0.003781742511819175,0.007811799390765373,2408.2359663252105,None,0.006211034497937362,0.012633787304366706,-39.0,197.0,1,0,0,2.5018051062561426,click_1,0.006211034497937362,None,2414.2630060343404,None,2414.2630060343404,None,0.005453454366033839,0.011109004939498845,2416.7650507309268,None,0.0061346991587925,0.012477909259359876,-39.0,56.0,1,0,0,3.8189094823246705,click_2,0.0061346991587925,None,2417.2668279330887,None,2417.2668279330887,None,2417.2668279330887,None,0.005253314652691188,0.01074015771246195,,,09_control,001,control,18,m/f,18,1,thomas,2023_Apr_17_1018,CPO_EEG,2020.1.3,143.73340955302487,
stimoli/01.full/M02-Joy-Face Forward.mp4,happy,full,maschio,3,6,720,576,43,,,,,,,,,,,,,,,,,1,0,1,0,,,,,,,,,0,43,43,42,,,0.004258966677298304,0.007803428163242643,2422.67209834301,None,0.006129567371317535,0.012497153461481503,99.0,-15.0,1,0,0,2.9059811624911163,click_1,0.006129567371317535,None,2428.699001418298,None,2428.699001418298,None,0.005474943727676873,0.011133701667858986,2431.6052773378337,None,0.006146566417555732,0.012500040092163545,130.0,85.0,1,0,0,3.9653764711392796,click_2,0.006146566417555732,None,2432.1070654450446,None,2432.1070654450446,None,2432.1070654450446,None,0.0053527430372923845,0.010901809019742359,,,09_control,001,control,18,m/f,18,1,thomas,2023_Apr_17_1018,CPO_EEG,2020.1.3,143.73340955302487,
stimoli/02.subtle/JF1_Surprise.mp4,surprised,subtle,femmina,5,10,1646,926,21,,,,,,,,,,,,,,,,,1,0,1,0,,,,,,,,,0,44,44,20,,,0.0054630123213428305,0.009045962214258907,2437.6577517895507,None,0.006228995754099742,0.012649503403736162,109.0,-162.0,1,0,0,2.1673568920869,click_1,0.006228995754099742,None,2448.4824473622934,None,2448.4824473622934,None,0.005477188883560302,0.011148455556394765,2450.650061805966,None,0.006138548000308219,0.012469570105167804,64.0,12.0,1,0,0,3.15016668687349,click_2,0.006138548000308219,None,2451.151797633091,None,2451.151797633091,None,2451.151797633091,None,0.005364931032090681,0.01092650574628351,,,09_control,001,control,18,m/f,18,1,thomas,2023_Apr_17_1018,CPO_EEG,2020.1.3,143.73340955302487,
stimoli/01.full/M02-Disgust-Face Forward.mp4,disgusted,full,maschio,3,6,720,576,39,,,,,,,,,,,,,,,,,1,0,1,0,,,,,,,,,0,45,45,38,,,0.0025016501913341926,0.006561214849170938,2455.890793637353,None,0.006169980198137637,0.012561300805828068,-150.0,117.0,1,0,0,4.9132349441370025,click_1,0.006169980198137637,None,2461.9122352077825,None,2461.9122352077825,None,0.005443511528028466,0.011115740410787112,2466.8257495136027,None,0.0061321332650550175,0.012477267784561263,-30.0,54.0,1,0,0,2.961775559990201,click_2,0.0061321332650550175,None,2467.327521904714,None,2467.327521904714,None,2467.327521904714,None,0.005375194607040612,0.010954730578305316,,,09_control,001,control,18,m/f,18,1,thomas,2023_Apr_17_1018,CPO_EEG,2020.1.3,143.73340955302487,
stimoli/02.subtle/JM1_Anger.mp4,angry,subtle,maschio,7,10,1646,926,7,,,,,,,,,,,,,,,,,1,0,1,0,,,,,,,,,0,46,46,6,,,0.004705400117018144,0.008355704720088397,2471.882082428054,None,0.006226429861271754,0.012643409406337014,-26.0,141.0,1,0,0,5.840251624370467,click_1,0.006226429861271754,None,2482.304066428423,None,2482.304066428423,None,0.005445115212751261,0.011094251051872561,2488.1445403233406,None,0.006154905572657299,0.012518322085270484,13.0,68.0,1,0,0,3.1708121887650123,click_2,0.006154905572657299,None,2488.646398671893,None,2488.646398671893,None,2488.646398671893,None,0.005395080283051357,0.01097846509401279,,,09_control,001,control,18,m/f,18,1,thomas,2023_Apr_17_1018,CPO_EEG,2020.1.3,143.73340955302487,
stimoli/01.full/F03-Neutral-Face Forward.mp4,neutral,full,femmina,2,6,720,576,54,,,,,,,,,,,,,,,,,1,0,1,0,,,,,,,,,0,47,47,53,,,0.00608075124273455,0.009719509324895625,2493.401879260586,None,0.0061969220823812066,0.012609411313860619,1.0,0.0,1,0,0,1.1845201554160667,click_1,0.0061969220823812066,None,2499.427483352161,None,2499.427483352161,None,0.005482962144014891,0.011188547645360813,2500.612314622195,None,0.00608113612724992,0.012391310345265083,0.0,0.0,1,0,0,0.8708290595168364,click_2,0.00608113612724992,None,2501.1140943902506,None,2501.1140943902506,None,2501.1140943902506,None,0.005376798289944418,0.010956654998153681,,,09_control,001,control,18,m/f,18,1,thomas,2023_Apr_17_1018,CPO_EEG,2020.1.3,143.73340955302487,
stimoli/01.full/F01-Surprise-Face Forward.mp4,surprised,full,femmina,1,6,720,576,49,,,,,,,,,,,,,,,,,1,0,1,0,,,,,,,,,0,48,48,48,,,0.0037329584565668483,0.007722602509602439,2503.5725990771766,None,0.00621167597182648,0.01263923982878623,33.0,-197.0,1,0,0,2.2160450468309136,click_1,0.00621167597182648,None,2509.5931345663735,None,2509.5931345663735,None,0.005464680151817447,0.011166416812557145,2511.8094589748866,None,0.006161320307001006,0.012541094392872765,4.0,-4.0,1,0,0,2.654988963449796,click_2,0.006161320307001006,None,2512.3113221344897,None,2512.3113221344897,None,2512.3113221344897,None,0.00531521684024483,0.01086364134971518,,,09_control,001,control,18,m/f,18,1,thomas,2023_Apr_17_1018,CPO_EEG,2020.1.3,143.73340955302487,
stimoli/02.subtle/JF2_Sadness.mp4,sad,subtle,femmina,6,8,1646,926,18,,,,,,,,,,,,,,,,,1,0,1,0,,,,,,,,,0,49,49,17,,,0.004953008864504227,0.00851960118416173,2516.5587580047863,None,0.006195318398567906,0.012613260154466843,-119.0,-82.0,1,0,0,4.976013383701684,click_1,0.006195318398567906,None,2524.941742344495,None,2524.941742344495,None,0.00545826541747374,0.01111638188467623,2529.917987941582,None,0.006133416211014264,0.012459948002288002,-18.0,-103.0,1,0,0,1.4562803777762383,click_2,0.006133416211014264,None,2530.419782784264,None,2530.419782784264,None,2530.419782784264,None,0.005345045355170441,0.010883847762670484,,,09_control,001,control,18,m/f,18,1,thomas,2023_Apr_17_1018,CPO_EEG,2020.1.3,143.73340955302487,
stimoli/02.subtle/JF2_Disgust.mp4,disgusted,subtle,femmina,6,10,1646,926,10,,,,,,,,,,,,,,,,,1,0,1,0,,,,,,,,,0,50,50,9,,,0.002793809267132019,0.006347251382067043,2533.470686267529,None,0.006202374606800731,0.012639881302675349,-164.0,113.0,1,0,0,2.7387647530877075,click_1,0.006202374606800731,None,2543.8966406677478,None,2543.8966406677478,None,0.005435172373836394,0.01111060862422164,2546.63567387747,None,0.00611160611424566,0.01243717569468572,-12.0,65.0,1,0,0,3.993525287844932,click_2,0.00611160611424566,None,2547.13749822793,None,2547.13749822793,None,2547.13749822793,None,0.005353384510272008,0.010910789647823549,,,09_control,001,control,18,m/f,18,1,thomas,2023_Apr_17_1018,CPO_EEG,2020.1.3,143.73340955302487,
stimoli/02.subtle/JM1_Happiness.mp4,happy,subtle,maschio,7,10,1646,926,15,,,,,,,,,,,,,,,,,1,0,1,0,,,,,,,,,0,51,51,14,,,0.0009768678273758269,0.004667264520321623,2552.7209667517905,None,0.00621007228801318,0.012625127413230075,151.0,26.0,1,0,0,6.746063117137965,click_1,0.00621007228801318,None,2563.1441355536012,None,2563.1441355536012,None,0.0054573032075495576,0.01111798556848953,2569.8904411476983,None,0.006152339678010321,0.012497794934461126,61.0,-10.0,1,0,0,2.0626697098168734,click_2,0.006152339678010321,None,2570.392238556274,None,2570.392238556274,None,2570.392238556274,None,0.005374232396206935,0.010944146265501331,,,09_control,001,control,18,m/f,18,1,thomas,2023_Apr_17_1018,CPO_EEG,2020.1.3,143.73340955302487,
stimoli/01.full/M02-Surprise-Face Forward.mp4,surprised,full,maschio,3,6,720,576,51,,,,,,,,,,,,,,,,,1,0,1,0,,,,,,,,,0,52,52,50,,,0.004383733261420275,0.007897724759459379,2574.041161426149,None,0.006196280609401583,0.012580865745803749,27.0,-205.0,1,0,0,1.7072587851389471,click_1,0.006196280609401583,None,2580.0643651241157,None,2580.0643651241157,None,0.0054409456342909834,0.011084308212957694,2581.771883705997,None,0.006151698205030698,0.01252858566112991,53.0,37.0,1,0,0,4.494838063237694,click_2,0.006151698205030698,None,2582.273642946903,None,2582.273642946903,None,2582.273642946903,None,0.005459227627397922,0.011115419673842553,,,09_control,001,control,18,m/f,18,1,thomas,2023_Apr_17_1018,CPO_EEG,2020.1.3,143.73340955302487,
stimoli/02.subtle/JF1_Disgust.mp4,disgusted,subtle,femmina,5,10,1646,926,9,,,,,,,,,,,,,,,,,1,0,1,0,,,,,,,,,0,53,53,8,,,0.004805790709724533,0.008258200757154555,2588.361035684526,None,0.006173829037834366,0.012576054694363847,-86.0,57.0,1,0,0,7.39474222710578,click_1,0.006173829037834366,None,2599.186824648745,None,2599.186824648745,None,0.005385778918025608,0.01098937014285184,2606.5817958818684,None,0.006044892877071106,0.012287391647078039,-2.0,2.0,1,0,0,2.27884914533297,click_2,0.006044892877071106,None,2607.083712604504,None,2607.083712604504,None,2607.083712604504,None,0.005338951358680788,0.010917204382167256,,,09_control,001,control,18,m/f,18,1,thomas,2023_Apr_17_1018,CPO_EEG,2020.1.3,143.73340955302487,
stimoli/02.subtle/JM2_Fear.mp4,fear,subtle,maschio,8,10,1646,926,4,,,,,,,,,,,,,,,,,1,0,1,0,,,,,,,,,0,54,54,3,,,0.0030693541848449968,0.007031094143712835,2610.9507476693666,None,0.006223222493645153,0.012660408452575211,43.0,-192.0,1,0,0,2.4599585864752953,click_1,0.006223222493645153,None,2621.5748115190668,None,2621.5748115190668,None,0.005449605526337109,0.011132097984045686,2624.0350064885038,None,0.006137906526419101,0.012485927676607389,-62.0,-12.0,1,0,0,4.181390085771454,click_2,0.006137906526419101,None,2624.5367942749776,None,2624.5367942749776,None,2624.5367942749776,None,0.0053521015634032665,0.010908544491030625,,,09_control,001,control,18,m/f,18,1,thomas,2023_Apr_17_1018,CPO_EEG,2020.1.3,143.73340955302487,
stimoli/02.subtle/JM2_Surprise.mp4,surprised,subtle,maschio,8,10,1646,926,24,,,,,,,,,,,,,,,,,1,0,1,0,,,,,,,,,0,55,55,23,,,0.0014188430259309825,0.004883441069068795,2630.3073026619218,None,0.00620654418344202,0.012630900673684664,40.0,-199.0,1,0,0,2.731840688788907,click_1,0.00620654418344202,None,2641.2946149587756,None,2641.2946149587756,None,0.005475264463711937,0.011134343141748104,2644.0266968415767,None,0.006128284425358288,0.012501964512921404,36.0,-54.0,1,0,0,5.05281892295352,click_2,0.006128284425358288,None,2644.52850034415,None,2644.52850034415,None,2644.52850034415,None,0.005346969775928301,0.01089956386203994,,,09_control,001,control,18,m/f,18,1,thomas,2023_Apr_17_1018,CPO_EEG,2020.1.3,143.73340955302487,
,,,,,,,,,,,,,,,,,,,,,,,,,1,0,1,0,,,,,,,,,,,,,,,,,,,,,,,,,,,,,,,,,,,,,,,,,,,,,,,,,,,,,,,,,,,09_control,001,control,18,m/f,18,1,thomas,2023_Apr_17_1018,CPO_EEG,2020.1.3,143.73340955302487,
