file,file_emotion,file_emotion_level,file_gender,file_id,file_duration,size_w,size_h,trigger,loop_practice_full.thisRepN,loop_practice_full.thisTrialN,loop_practice_full.thisN,loop_practice_full.thisIndex,loop_istr_practice.thisRepN,loop_istr_practice.thisTrialN,loop_istr_practice.thisN,loop_istr_practice.thisIndex,tuto.thisRepN,tuto.thisTrialN,tuto.thisN,tuto.thisIndex,loop_practice.thisRepN,loop_practice.thisTrialN,loop_practice.thisN,loop_practice.thisIndex,exp_blocks.thisRepN,exp_blocks.thisTrialN,exp_blocks.thisN,exp_blocks.thisIndex,istr_1.thisRepN,istr_1.thisTrialN,istr_1.thisN,istr_1.thisIndex,istr_2.thisRepN,istr_2.thisTrialN,istr_2.thisN,istr_2.thisIndex,exp.thisRepN,exp.thisTrialN,exp.thisN,exp.thisIndex,img_tutorial.started,key_resp.started,p_port.started,mov_target.started,p_port.stopped,p_port_2.started,primary.started,img_primary_wheel.started,click_1.started,p_port_2.stopped,primary.x,primary.y,primary.leftButton,primary.midButton,primary.rightButton,primary.time,primary.clicked_name,p_port_4.started,txt_iwi.started,p_port_4.stopped,txt_iwi.stopped,p_port_3.started,secondary.started,img_secondary_wheel.started,click_2.started,primary_pos.started,p_port_3.stopped,secondary.x,secondary.y,secondary.leftButton,secondary.midButton,secondary.rightButton,secondary.time,secondary.clicked_name,p_port_5.started,p_port_5.stopped,kb_end_practice.keys,kb_end_practice.rt,participant,session,group,age,sex,education,practice,experimenter,date,expName,psychopyVersion,frameRate,
stimoli/03.practice/F04-Surprise-Face Forward.mp4,surprise,full,femmina,9,6,700,700,61,0,0,0,0,,,,,,,,,0,0,0,4,,,,,,,,,,,,,,,,,165.26364840002498,165.26364840002498,0.5334507999941707,170.02622699999483,0.5412859999923967,0.000812100013718009,0.000812100013718009,176.14532720000716,176.14532720000716,0.009459300024900585,40.0,-180.0,1,0,0,6.869768999982625,'click_1',1.7899961676448584e-05,183.01158130000113,0.004077099962159991,183.51603190001333,-0.0005189999938011169,-0.0005189999938011169,183.51603190001333,183.51603190001333,183.51603190001333,0.00851620000321418,37.0,-172.0,1,0,0,10.084703000029549,'click_2',1.6600009985268116e-05,0.008441200014203787,,,13,001,control_mbs,25,f,18,1,ale_ila,2024-04-22_17h08.40.556,CPO_EEG,2022.2.1,99.82719910415807,
stimoli/03.practice/F04-Neutral-Face Forward.mp4,neutral,full,femmina,9,6,700,700,62,0,0,0,0,,,,,,,,,0,1,1,5,,,,,,,,,,,,,,,,,,,0.14379030000418425,195.2439404000179,0.15107279998483136,0.0007850999827496707,0.0007850999827496707,201.19599680003012,201.19599680003012,0.00969709997298196,85.0,-126.0,1,0,0,4.152442099992186,'click_1',1.5199999324977398e-05,205.34927060001064,0.008907800016459078,,0.0026231000083498657,0.0026231000083498657,205.8522155000246,205.8522155000246,205.8522155000246,0.011834200005978346,91.0,-127.0,1,0,0,5.097706400032621,'click_2',1.4899997040629387e-05,0.008792100008577108,,,13,001,control_mbs,25,f,18,1,ale_ila,2024-04-22_17h08.40.556,CPO_EEG,2022.2.1,99.82719910415807,
stimoli/03.practice/F04-Sadness-Face Forward.mp4,sadness,full,femmina,9,6,700,700,60,0,0,0,0,,,,,,,,,0,2,2,3,,,,,,,,,,,,,,,,,,,0.14406670001335442,212.59293149999576,0.15135419997386634,0.0007741000154055655,0.0007741000154055655,218.5459242000361,218.5459242000361,0.009705100033897907,-37.0,-138.0,1,0,0,5.097835200023837,'click_1',1.4599994756281376e-05,223.64443159999792,0.008825400029309094,,0.0023772999993525445,0.0023772999993525445,224.14722530002473,224.14722530002473,224.14722530002473,0.011619700002484024,-87.0,-62.0,1,0,0,4.052494800009299,'click_2',2.2499996703118086e-05,0.008707100001629442,,,13,001,control_mbs,25,f,18,1,ale_ila,2024-04-22_17h08.40.556,CPO_EEG,2022.2.1,99.82719910415807,
stimoli/03.practice/F04-Joy-Face Forward.mp4,joy,full,femmina,9,6,700,700,59,0,0,0,0,,,,,,,,,0,3,3,2,,,,,,,,,,,,,,,,,,,0.15023239998845384,229.84889120003209,0.15761339996242896,0.0008557999972254038,0.0008557999972254038,235.80564730003243,235.80564730003243,0.00977099995361641,128.0,74.0,1,0,0,3.6291549999732524,'click_1',1.5400000847876072e-05,239.43544989998918,0.00873260002117604,,0.0023188000195659697,0.0023188000195659697,239.93821059999755,239.93821059999755,239.93821059999755,0.011517600039951503,141.0,32.0,1,0,0,3.318446799996309,'click_2',2.2500054910779e-05,0.0082852000487037,,,13,001,control_mbs,25,f,18,1,ale_ila,2024-04-22_17h08.40.556,CPO_EEG,2022.2.1,99.82719910415807,
stimoli/03.practice/F04-Disgust-Face Forward.mp4,disgust,full,femmina,9,6,700,700,58,0,0,0,0,,,,,,,,,0,4,4,1,,,,,,,,,,,,,,,,,,,0.14130060002207756,244.8969436000334,0.14862710004672408,0.0008277000160887837,0.0008277000160887837,250.85131250001723,250.85131250001723,0.009733600018080324,-32.0,179.0,1,0,0,3.398173699970357,'click_1',1.639995025470853e-05,254.25010180001846,0.008761799952480942,,0.0026324999635107815,0.0026324999635107815,254.75315890001366,254.75315890001366,254.75315890001366,0.011819199949968606,-78.0,127.0,1,0,0,2.61516639997717,'click_2',1.4099990949034691e-05,0.008236600027885288,,,13,001,control_mbs,25,f,18,1,ale_ila,2024-04-22_17h08.40.556,CPO_EEG,2022.2.1,99.82719910415807,
stimoli/03.practice/F04-Anger-Face Forward.mp4,anger,full,femmina,9,6,700,700,57,0,0,0,0,,,,,,,,,0,5,5,0,,,,,,,,,,,,,,,,,,,0.14740339998388663,259.0149831000017,0.15491990000009537,0.0008154000388458371,0.0008154000388458371,264.9635542000178,264.9635542000178,0.009757500025443733,-130.0,95.0,1,0,0,4.836436600016896,'click_1',1.5199999324977398e-05,269.80033719999483,0.008482699980959296,,0.002070999995339662,0.002070999995339662,270.30316760001006,270.30316760001006,270.30316760001006,0.011340999975800514,-66.0,-115.0,1,0,0,2.312605800048914,'click_2',1.4999997802078724e-05,0.00878739997278899,,,13,001,control_mbs,25,f,18,1,ale_ila,2024-04-22_17h08.40.556,CPO_EEG,2022.2.1,99.82719910415807,
,,,,,,,,,0,0,0,0,,,,,,,,,,,,,,,,,,,,,,,,,,,,,,,,,,,,,,,,,,,,,,,,,,,,,,,,,,,,,,,,,n,20.56846249999944,13,001,control_mbs,25,f,18,1,ale_ila,2024-04-22_17h08.40.556,CPO_EEG,2022.2.1,99.82719910415807,
,,,,,,,,,,,,,,,,,,,,,,,,,0,0,0,0,0,0,0,0,,,,,,,,,,,,,,,,,,,,,,,,,,,,,,,,,,,,,,,,,,,,,,,13,001,control_mbs,25,f,18,1,ale_ila,2024-04-22_17h08.40.556,CPO_EEG,2022.2.1,99.82719910415807,
stimoli/02.subtle/JM2_Anger.mp4,angry,subtle,maschio,8,10,1646,926,8,,,,,,,,,,,,,,,,,0,0,0,0,,,,,,,,,0,0,0,7,,,0.1446892999811098,300.53818430000683,0.15199559996835887,0.0006856000400148332,0.0006856000400148332,311.45421019999776,311.45421019999776,0.009901000012177974,-32.0,-159.0,1,0,0,3.7300092999939807,'click_1',1.5600002370774746e-05,315.1845736000105,0.00839029997587204,,0.0017074999632313848,0.0017074999632313848,315.68729500001064,315.68729500001064,315.68729500001064,0.011106399993877858,-28.0,150.0,1,0,0,3.730561600008514,'click_2',1.5199999324977398e-05,0.008490099979098886,,,13,001,control_mbs,25,f,18,1,ale_ila,2024-04-22_17h08.40.556,CPO_EEG,2022.2.1,99.82719910415807,
stimoli/02.subtle/JM1_Neutral.mp4,neutral,subtle,maschio,7,10,1646,926,27,,,,,,,,,,,,,,,,,0,0,0,0,,,,,,,,,0,1,1,26,,,0.1496420999756083,321.0664346999838,0.15683809999609366,0.0007472999859601259,0.0007472999859601259,331.41767520003486,331.41767520003486,0.00973699998576194,-128.0,92.0,1,0,0,2.49329910002416,'click_1',1.5400000847876072e-05,333.9116054000333,0.008740699966438115,,0.0021246999967843294,0.0021246999967843294,334.41448249999667,334.41448249999667,334.41448249999667,0.011651800014078617,-84.0,137.0,1,0,0,2.4835078000323847,'click_2',1.479999627918005e-05,0.008611499972175807,,,13,001,control_mbs,25,f,18,1,ale_ila,2024-04-22_17h08.40.556,CPO_EEG,2022.2.1,99.82719910415807,
stimoli/02.subtle/JM1_Happiness.mp4,happy,subtle,maschio,7,10,1646,926,15,,,,,,,,,,,,,,,,,0,0,0,0,,,,,,,,,0,2,2,14,,,0.14306749997194856,338.53988050000044,0.15038969996385276,0.0007277000113390386,0.0007277000113390386,348.8960068000015,348.8960068000015,0.00977120001334697,161.0,32.0,1,0,0,3.33805169997504,'click_1',2.2299995180219412e-05,352.2345578999957,0.00868379999883473,,0.0022130999714136124,0.0022130999714136124,352.73744230001466,352.73744230001466,352.73744230001466,0.011586599983274937,-118.0,79.0,1,0,0,2.322754699969664,'click_2',1.3999990187585354e-05,0.008775800000876188,,,13,001,control_mbs,25,f,18,1,ale_ila,2024-04-22_17h08.40.556,CPO_EEG,2022.2.1,99.82719910415807,
stimoli/01.full/F03-Sadness-Face Forward.mp4,sad,full,femmina,2,6,720,576,46,,,,,,,,,,,,,,,,,0,0,0,0,,,,,,,,,0,3,3,45,,,0.149833099974785,356.70867319998797,0.15706439997302368,0.0007701000431552529,0.0007701000431552529,362.66608350002207,362.66608350002207,0.009797100035939366,-43.0,-186.0,1,0,0,4.93641760002356,'click_1',1.4999997802078724e-05,367.6030318000121,0.008772199973464012,,0.0021871000062674284,0.0021871000062674284,368.10587920004036,368.10587920004036,368.10587920004036,0.011638899974059314,-145.0,-35.0,1,0,0,3.791296000010334,'click_2',1.4899997040629387e-05,0.00844199996208772,,,13,001,control_mbs,25,f,18,1,ale_ila,2024-04-22_17h08.40.556,CPO_EEG,2022.2.1,99.82719910415807,
stimoli/01.full/M02-Surprise-Face Forward.mp4,surprised,full,maschio,3,6,720,576,51,,,,,,,,,,,,,,,,,0,0,0,0,,,,,,,,,0,4,4,50,,,0.14853609999408945,373.54450670001097,0.155901099962648,0.0007196000078693032,0.0007196000078693032,379.5011780000059,379.5011780000059,0.009769399999640882,30.0,-144.0,1,0,0,4.453200099989772,'click_1',1.4999997802078724e-05,383.9553218000219,0.009159900015220046,,0.002525000018067658,0.002525000018067658,384.4580209000269,384.4580209000269,384.4580209000269,0.011868099973071367,85.0,-119.0,1,0,0,3.7003555999835953,'click_2',1.479999627918005e-05,0.00894600001629442,,,13,001,control_mbs,25,f,18,1,ale_ila,2024-04-22_17h08.40.556,CPO_EEG,2022.2.1,99.82719910415807,
stimoli/02.subtle/JF1_Surprise.mp4,surprised,subtle,femmina,5,10,1646,926,21,,,,,,,,,,,,,,,,,0,0,0,0,,,,,,,,,0,5,5,20,,,0.15283340000314638,389.8099937000079,0.16016919998219237,0.0006932999822311103,0.0006932999822311103,400.55917160003446,400.55917160003446,0.009800600004382432,112.0,-173.0,1,0,0,2.0016691999626346,'click_1',1.5199999324977398e-05,402.5603440999985,0.007822200015652925,,0.001416600018274039,0.001416600018274039,403.0631207000115,403.0631207000115,403.0631207000115,0.010596100008115172,28.0,-108.0,1,0,0,3.046577900007833,'click_2',1.479999627918005e-05,0.00873120001051575,,,13,001,control_mbs,25,f,18,1,ale_ila,2024-04-22_17h08.40.556,CPO_EEG,2022.2.1,99.82719910415807,
stimoli/02.subtle/JM1_Anger.mp4,angry,subtle,maschio,7,10,1646,926,7,,,,,,,,,,,,,,,,,0,0,0,0,,,,,,,,,0,6,6,6,,,0.15121430001454428,407.76005530002294,0.15864560002228245,0.0007150999736040831,0.0007150999736040831,418.1090593000408,418.1090593000408,0.009695800021290779,-96.0,151.0,1,0,0,4.846720699977595,'click_1',1.5300000086426735e-05,422.95647590002045,0.008882599999196827,,0.0024200999760068953,0.0024200999760068953,423.4592399999965,423.4592399999965,423.4592399999965,0.01161859999410808,-137.0,96.0,1,0,0,1.306942600000184,'click_2',1.4599994756281376e-05,0.00884820002829656,,,13,001,control_mbs,25,f,18,1,ale_ila,2024-04-22_17h08.40.556,CPO_EEG,2022.2.1,99.82719910415807,
stimoli/01.full/F01-Joy-Face Forward.mp4,happy,full,femmina,1,6,720,576,41,,,,,,,,,,,,,,,,,0,0,0,0,,,,,,,,,0,7,7,40,,,0.1483760999981314,426.413481399999,0.15575180004816502,0.0007161000394262373,0.0007161000394262373,432.3713088000077,432.3713088000077,0.009733200015034527,130.0,92.0,1,0,0,2.41365569998743,'click_1',1.4999997802078724e-05,434.7849213000154,0.008127800014335662,,0.0018387000309303403,0.0018387000309303403,435.28779179998673,435.28779179998673,435.28779179998673,0.011015500000212342,104.0,25.0,1,0,0,1.5682570000062697,'click_2',2.19999928958714e-05,0.008914199948776513,,,13,001,control_mbs,25,f,18,1,ale_ila,2024-04-22_17h08.40.556,CPO_EEG,2022.2.1,99.82719910415807,
stimoli/02.subtle/JF1_Anger.mp4,angry,subtle,femmina,5,10,1646,926,5,,,,,,,,,,,,,,,,,0,0,0,0,,,,,,,,,0,8,8,4,,,0.15177799999946728,438.5067696000333,0.15906320000067353,0.0007322000456042588,0.0007322000456042588,449.2587751999963,449.2587751999963,0.009715200052596629,-174.0,-37.0,1,0,0,3.3075444999849424,'click_1',1.4999997802078724e-05,452.5670603000326,0.008868000004440546,,0.0024210999836213887,0.0024210999836213887,453.069950300036,453.069950300036,453.069950300036,0.011761199973989278,-16.0,-133.0,1,0,0,2.1519934000098146,'click_2',1.4100049156695604e-05,0.008943099994212389,,,13,001,control_mbs,25,f,18,1,ale_ila,2024-04-22_17h08.40.556,CPO_EEG,2022.2.1,99.82719910415807,
stimoli/02.subtle/JF2_Sadness.mp4,sad,subtle,femmina,6,8,1646,926,18,,,,,,,,,,,,,,,,,0,0,0,0,,,,,,,,,0,9,9,17,,,0.15272810001624748,456.8732761000283,0.15989670000271872,0.0006987000233493745,0.0006987000233493745,465.1908401999972,465.1908401999972,0.00990459998138249,-147.0,103.0,1,0,0,3.418628900020849,'click_1',1.4599994756281376e-05,468.6099455000367,0.008877999964170158,,0.0023845999967306852,0.0023845999967306852,469.11266410001554,469.11266410001554,469.11266410001554,0.011626599996816367,-23.0,-113.0,1,0,0,2.9757513999938965,'click_2',1.4499993994832039e-05,0.00921109999762848,,,13,001,control_mbs,25,f,18,1,ale_ila,2024-04-22_17h08.40.556,CPO_EEG,2022.2.1,99.82719910415807,
stimoli/02.subtle/JF1_Happiness.mp4,happy,subtle,femmina,5,10,1646,926,13,,,,,,,,,,,,,,,,,0,0,0,0,,,,,,,,,0,10,10,12,,,0.15450140001485124,473.7418110999861,0.16186150000430644,0.0008206000202335417,0.0008206000202335417,484.4899681000388,484.4899681000388,0.009722899994812906,112.0,156.0,1,0,0,1.8090678000007756,'click_1',1.5199999324977398e-05,486.2999792000046,0.00906160002341494,,0.0025704000145196915,0.0025704000145196915,486.80271590000484,486.80271590000484,486.80271590000484,0.011793699988629669,136.0,93.0,1,0,0,2.151759799977299,'click_2',2.800003858283162e-05,0.008939100021962076,,,13,001,control_mbs,25,f,18,1,ale_ila,2024-04-22_17h08.40.556,CPO_EEG,2022.2.1,99.82719910415807,
stimoli/01.full/M02-Anger-Face Forward.mp4,angry,full,maschio,3,6,720,576,35,,,,,,,,,,,,,,,,,0,0,0,0,,,,,,,,,0,11,11,34,,,0.14988899999298155,490.60327640001196,0.15728909999597818,0.0008481999975629151,0.0008481999975629151,496.5595211000182,496.5595211000182,0.009712900035083294,-141.0,106.0,1,0,0,10.940140100021381,'click_1',1.4699995517730713e-05,507.50038460001815,0.008749800035730004,,0.0022375000407919288,0.0022375000407919288,508.0031360000139,508.0031360000139,508.0031360000139,0.011517900042235851,80.0,-126.0,1,0,0,2.624140800035093,'click_2',1.479999627918005e-05,0.008871199970599264,,,13,001,control_mbs,25,f,18,1,ale_ila,2024-04-22_17h08.40.556,CPO_EEG,2022.2.1,99.82719910415807,
stimoli/02.subtle/JM1_Surprise.mp4,surprised,subtle,maschio,7,10,1646,926,23,,,,,,,,,,,,,,,,,0,0,0,0,,,,,,,,,0,12,12,22,,,0.1541465999907814,512.2803311999887,0.16150270000798628,0.0007062000222504139,0.0007062000222504139,522.636336399999,522.636336399999,0.009878600016236305,38.0,-145.0,1,0,0,5.579989599995315,'click_1',2.7499976567924023e-05,528.2169859000132,0.009011499991174787,,0.002609300019685179,0.002609300019685179,528.7197733999928,528.7197733999928,528.7197733999928,0.011772500001825392,118.0,-73.0,1,0,0,2.3625210999744013,'click_2',2.6799971237778664e-05,0.008802399970591068,,,13,001,control_mbs,25,f,18,1,ale_ila,2024-04-22_17h08.40.556,CPO_EEG,2022.2.1,99.82719910415807,
stimoli/01.full/F03-Neutral-Face Forward.mp4,neutral,full,femmina,2,6,720,576,54,,,,,,,,,,,,,,,,,0,0,0,0,,,,,,,,,0,13,13,53,,,0.1439301999635063,532.7255026000203,0.15143499994883314,0.0008058000239543617,0.0008058000239543617,538.6783976000152,538.6783976000152,0.009749200020451099,-1.0,-1.0,1,0,0,7.179422199958935,'click_1',1.479999627918005e-05,545.8584779000375,0.00876519997837022,,0.002173999964725226,0.002173999964725226,546.3611398999928,546.3611398999928,546.3611398999928,0.01143189996946603,-1.0,4.0,1,0,0,3.368012399994768,'click_2',1.4599994756281376e-05,0.009017899981699884,,,13,001,control_mbs,25,f,18,1,ale_ila,2024-04-22_17h08.40.556,CPO_EEG,2022.2.1,99.82719910415807,
stimoli/02.subtle/JF2_Surprise.mp4,surprised,subtle,femmina,6,10,1646,926,22,,,,,,,,,,,,,,,,,0,0,0,0,,,,,,,,,0,14,14,21,,,0.1526818999554962,551.3805410999921,0.1598622999736108,0.0007097999914549291,0.0007097999914549291,561.7387006999925,561.7387006999925,0.010174700000789016,-155.0,98.0,1,0,0,2.111319799965713,'click_1',1.4699995517730713e-05,563.8502050000243,0.00882300001103431,,0.002383399987593293,0.002383399987593293,564.3529789000168,564.3529789000168,564.3529789000168,0.011604200000874698,-137.0,28.0,1,0,0,1.3774782000109553,'click_2',1.4399993233382702e-05,0.008776300004683435,,,13,001,control_mbs,25,f,18,1,ale_ila,2024-04-22_17h08.40.556,CPO_EEG,2022.2.1,99.82719910415807,
stimoli/01.full/M03-Neutral-Face Forward.mp4,neutral,full,maschio,4,6,720,576,56,,,,,,,,,,,,,,,,,0,0,0,0,,,,,,,,,0,15,15,55,,,0.14792540000053123,567.3772593000322,0.15516630001366138,0.0007650000043213367,0.0007650000043213367,573.3347164000152,573.3347164000152,0.009803200024180114,-3.0,0.0,1,0,0,3.619091100001242,'click_1',1.5099998563528061e-05,576.9546202000347,0.009006399952340871,,0.002409899956546724,0.002409899956546724,577.4574194999877,577.4574194999877,577.4574194999877,0.011818500002846122,0.0,0.0,1,0,0,0.7738406000426039,'click_2',1.4299992471933365e-05,0.008684300002641976,,,13,001,control_mbs,25,f,18,1,ale_ila,2024-04-22_17h08.40.556,CPO_EEG,2022.2.1,99.82719910415807,
stimoli/02.subtle/JF2_Disgust.mp4,disgusted,subtle,femmina,6,10,1646,926,10,,,,,,,,,,,,,,,,,0,0,0,0,,,,,,,,,0,16,16,9,,,0.15140020003309473,579.8814457000117,0.1587085000355728,0.0006999000324867666,0.0006999000324867666,590.2302913999883,590.2302913999883,0.009899099997710437,-103.0,69.0,1,0,0,3.840898099995684,'click_1',1.4099990949034691e-05,594.0717048000079,0.008938200015109032,,0.0026632000226527452,0.0026632000226527452,594.57462020003,594.57462020003,594.57462020003,0.011855999997351319,-127.0,25.0,1,0,0,2.4833952999906614,'click_2',1.479999627918005e-05,0.00863190001109615,,,13,001,control_mbs,25,f,18,1,ale_ila,2024-04-22_17h08.40.556,CPO_EEG,2022.2.1,99.82719910415807,
stimoli/01.full/M03-Surprise-Face Forward.mp4,surprised,full,maschio,4,6,720,576,52,,,,,,,,,,,,,,,,,0,0,0,0,,,,,,,,,0,17,17,51,,,0.14958930003922433,598.7065434000106,0.15688279998721555,0.0007914999732747674,0.0007914999732747674,604.6642533999984,604.6642533999984,0.009673699969425797,26.0,-118.0,1,0,0,4.574574899976142,'click_1',1.4599994756281376e-05,609.2396129000117,0.00891629996476695,,0.002379499957896769,0.002379499957896769,609.7423038000125,609.7423038000125,609.7423038000125,0.01162299996940419,-4.0,-25.0,1,0,0,3.8911613000091165,'click_2',1.3999990187585354e-05,0.009080599993467331,,,13,001,control_mbs,25,f,18,1,ale_ila,2024-04-22_17h08.40.556,CPO_EEG,2022.2.1,99.82719910415807,
stimoli/01.full/M03-Fear-Face Forward.mp4,fear,full,maschio,4,6,720,576,32,,,,,,,,,,,,,,,,,0,0,0,0,,,,,,,,,0,18,18,31,,,0.14948930003447458,615.2816000999883,0.15659600001526996,0.0006773000350221992,0.0006773000350221992,621.2298845000332,621.2298845000332,0.009911600034683943,54.0,-196.0,1,0,0,1.6990161000285298,'click_1',1.4699995517730713e-05,622.9294949999894,0.009037499956320971,,0.0026344999787397683,0.0026344999787397683,623.4322475999943,623.4322475999943,623.4322475999943,0.011809599993284792,34.0,-196.0,1,0,0,1.487962500017602,'click_2',1.4899997040629387e-05,0.008730600005947053,,,13,001,control_mbs,25,f,18,1,ale_ila,2024-04-22_17h08.40.556,CPO_EEG,2022.2.1,99.82719910415807,
stimoli/02.subtle/JM2_Happiness.mp4,happy,subtle,maschio,8,10,1646,926,16,,,,,,,,,,,,,,,,,0,0,0,0,,,,,,,,,0,19,19,15,,,0.154762500023935,626.5738057999988,0.16201890003867447,0.0006741000106558204,0.0006741000106558204,637.1312837000005,637.1312837000005,0.009850499976892024,195.0,37.0,1,0,0,1.9938114000251517,'click_1',1.4699995517730713e-05,639.1256381000276,0.008925899979658425,,0.0022142999805510044,0.0022142999805510044,639.6283607000369,639.6283607000369,639.6283607000369,0.01167370000621304,159.0,103.0,1,0,0,1.2772195999859832,'click_2',1.4899997040629387e-05,0.008788700040895492,,,13,001,control_mbs,25,f,18,1,ale_ila,2024-04-22_17h08.40.556,CPO_EEG,2022.2.1,99.82719910415807,
stimoli/02.subtle/JF2_Neutral.mp4,neutral,subtle,femmina,6,9,1646,926,26,,,,,,,,,,,,,,,,,0,0,0,0,,,,,,,,,0,20,20,25,,,0.1528385000419803,642.5521146000247,0.15516850003041327,0.000666900014039129,0.000666900014039129,651.9896229000296,651.9896229000296,0.009861800004728138,15.0,80.0,1,0,0,5.459238899988122,'click_1',1.4599994756281376e-05,657.4495264000143,0.00906750001013279,,0.00255430000834167,0.00255430000834167,657.9523068999988,657.9523068999988,657.9523068999988,0.011862799990922213,3.0,26.0,1,0,0,1.447561599954497,'click_2',1.5900004655122757e-05,0.008748400025069714,,,13,001,control_mbs,25,f,18,1,ale_ila,2024-04-22_17h08.40.556,CPO_EEG,2022.2.1,99.82719910415807,
stimoli/01.full/F03-Fear-Face Forward.mp4,fear,full,femmina,2,6,720,576,30,,,,,,,,,,,,,,,,,0,0,0,0,,,,,,,,,0,21,21,29,,,0.1438229000195861,661.0426614999888,0.15120399999432266,0.0008111000061035156,0.0008111000061035156,666.9949752000393,666.9949752000393,0.009895500028505921,38.0,-158.0,1,0,0,6.847137600008864,'click_1',2.6300025638192892e-05,673.842556699994,0.008609400014393032,,0.0021299999789334834,0.0021299999789334834,674.3452961000148,674.3452961000148,674.3452961000148,0.011395899986382574,-89.0,-113.0,1,0,0,1.2567097999854013,'click_2',1.479999627918005e-05,0.00873249996220693,,,13,001,control_mbs,25,f,18,1,ale_ila,2024-04-22_17h08.40.556,CPO_EEG,2022.2.1,99.82719910415807,
stimoli/01.full/F03-Joy-Face Forward.mp4,happy,full,femmina,2,6,720,576,42,,,,,,,,,,,,,,,,,0,0,0,0,,,,,,,,,0,22,22,41,,,0.14258139999583364,677.2436144000385,0.15000249998411164,0.0008063000277616084,0.0008063000277616084,683.1976987000089,683.1976987000089,0.009754500002600253,125.0,90.0,1,0,0,5.2987805000157095,'click_1',1.580000389367342e-05,688.4974791000132,0.009075100009795278,,0.0024586000363342464,0.0024586000363342464,689.0001037000329,689.0001037000329,689.0001037000329,0.011691800027620047,72.0,91.0,1,0,0,2.262239200004842,'click_2',1.4099990949034691e-05,0.00877089996356517,,,13,001,control_mbs,25,f,18,1,ale_ila,2024-04-22_17h08.40.556,CPO_EEG,2022.2.1,99.82719910415807,
stimoli/02.subtle/JM1_Sadness.mp4,sad,subtle,maschio,7,10,1646,926,19,,,,,,,,,,,,,,,,,0,0,0,0,,,,,,,,,0,23,23,18,,,0.149428499978967,692.9105943000177,0.15670319995842874,0.000692599976900965,0.000692599976900965,703.2622226999956,703.2622226999956,0.009792900003958493,-108.0,-76.0,1,0,0,4.866193699999712,'click_1',1.5300000086426735e-05,708.1291624000296,0.008976300014182925,,0.0024218999897129834,0.0024218999897129834,708.6318701999844,708.6318701999844,708.6318701999844,0.01166340004419908,-129.0,-27.0,1,0,0,3.700257899996359,'click_2',1.4499993994832039e-05,0.009001800033729523,,,13,001,control_mbs,25,f,18,1,ale_ila,2024-04-22_17h08.40.556,CPO_EEG,2022.2.1,99.82719910415807,
stimoli/01.full/F03-Disgust-Face Forward.mp4,disgusted,full,femmina,2,6,720,576,38,,,,,,,,,,,,,,,,,0,0,0,0,,,,,,,,,0,24,24,37,,,0.15023460000520572,713.9812649000087,0.15756900003179908,0.0007027999963611364,0.0007027999963611364,719.9384622999933,719.9384622999933,0.009763600013684481,-72.0,122.0,1,0,0,2.141277299961075,'click_1',1.4499993994832039e-05,722.0804022999946,0.008906200004275888,,0.0027185999788343906,0.0027185999788343906,722.583461400005,722.583461400005,722.583461400005,0.01198040001327172,-36.0,139.0,1,0,0,1.1056013999623246,'click_2',1.4899997040629387e-05,0.008731800015084445,,,13,001,control_mbs,25,f,18,1,ale_ila,2024-04-22_17h08.40.556,CPO_EEG,2022.2.1,99.82719910415807,
stimoli/01.full/M02-Disgust-Face Forward.mp4,disgusted,full,maschio,3,6,720,576,39,,,,,,,,,,,,,,,,,0,0,0,0,,,,,,,,,0,25,25,38,,,0.14300490001915023,725.3309597999905,0.15032270003575832,0.0007737999549135566,0.0007737999549135566,731.2840878000134,731.2840878000134,0.009719699970446527,-118.0,84.0,1,0,0,1.9403401000308804,'click_1',1.4699995517730713e-05,733.2250653000083,0.00884080003015697,,0.002485700009856373,0.002485700009856373,733.7281573000364,733.7281573000364,733.7281573000364,0.011933800007682294,-105.0,102.0,1,0,0,1.7892802000278607,'click_2',1.379998866468668e-05,0.00895479996688664,,,13,001,control_mbs,25,f,18,1,ale_ila,2024-04-22_17h08.40.556,CPO_EEG,2022.2.1,99.82719910415807,
stimoli/02.subtle/JF1_Disgust.mp4,disgusted,subtle,femmina,5,10,1646,926,9,,,,,,,,,,,,,,,,,0,0,0,0,,,,,,,,,0,26,26,8,,,0.14690549997612834,737.1629742000368,0.1541597999748774,0.0008663999615237117,0.0008663999615237117,747.9187983000302,747.9187983000302,0.009786199952941388,-190.0,121.0,1,0,0,1.316406800004188,'click_1',1.550000160932541e-05,749.2359797999961,0.008794999972451478,,0.0020490000024437904,0.0020490000024437904,749.7384854000411,749.7384854000411,749.7384854000411,0.011296999990008771,-185.0,118.0,1,0,0,5.561462500016205,'click_2',3.0199997127056122e-05,0.00875480001559481,,,13,001,control_mbs,25,f,18,1,ale_ila,2024-04-22_17h08.40.556,CPO_EEG,2022.2.1,99.82719910415807,
stimoli/01.full/F03-Surprise-Face Forward.mp4,surprised,full,femmina,2,6,720,576,50,,,,,,,,,,,,,,,,,0,0,0,0,,,,,,,,,0,27,27,49,,,0.14329540001926944,756.9423614999978,0.15079230000264943,0.0004910000134259462,0.0004910000134259462,762.8984276999836,762.8984276999836,0.009786900016479194,48.0,-197.0,1,0,0,4.685482500004582,'click_1',1.5300000086426735e-05,767.5842366000288,0.008782499993685633,,0.0023861999507062137,0.0023861999507062137,768.0872664999915,768.0872664999915,768.0872664999915,0.011820599960628897,78.0,-115.0,1,0,0,1.4984395000501536,'click_2',1.3999990187585354e-05,0.008866299991495907,,,13,001,control_mbs,25,f,18,1,ale_ila,2024-04-22_17h08.40.556,CPO_EEG,2022.2.1,99.82719910415807,
stimoli/02.subtle/JM2_Surprise.mp4,surprised,subtle,maschio,8,10,1646,926,24,,,,,,,,,,,,,,,,,0,0,0,0,,,,,,,,,0,28,28,23,,,0.15074399998411536,771.2349681000342,0.1579306999919936,0.0007337999995797873,0.0007337999995797873,782.1495653000311,782.1495653000311,0.00991780002368614,42.0,-138.0,1,0,0,1.4576725999941118,'click_1',1.4399993233382702e-05,783.6077139000408,0.008898000000044703,,0.0023258000146597624,0.0023258000146597624,784.1104031000286,784.1104031000286,784.1104031000286,0.011581099999602884,107.0,-147.0,1,0,0,2.825741999957245,'click_2',1.4199991710484028e-05,0.008735899988096207,,,13,001,control_mbs,25,f,18,1,ale_ila,2024-04-22_17h08.40.556,CPO_EEG,2022.2.1,99.82719910415807,
stimoli/02.subtle/JF1_Fear.mp4,fear,subtle,femmina,5,10,1646,926,1,,,,,,,,,,,,,,,,,0,0,0,0,,,,,,,,,0,29,29,0,,,0.14503379998495802,788.5799847000162,0.15230129996780306,0.0008703999919816852,0.0008703999919816852,799.3376714999904,799.3376714999904,0.00970599998254329,-196.0,-45.0,1,0,0,2.4732641999726184,'click_1',1.5099998563528061e-05,801.811733599985,0.00876499997684732,,0.002544199989642948,0.002544199989642948,802.3146867000032,802.3146867000032,802.3146867000032,0.011741399997845292,-88.0,-122.0,1,0,0,2.342885499994736,'click_2',1.4399993233382702e-05,0.008557099965400994,,,13,001,control_mbs,25,f,18,1,ale_ila,2024-04-22_17h08.40.556,CPO_EEG,2022.2.1,99.82719910415807,
stimoli/02.subtle/JM2_Disgust.mp4,disgusted,subtle,maschio,8,10,1646,926,12,,,,,,,,,,,,,,,,,0,0,0,0,,,,,,,,,0,30,30,11,,,0.1493608999880962,806.3058367000194,0.15657230000942945,0.0007057000184431672,0.0007057000184431672,816.8578889000346,816.8578889000346,0.009701800008770078,-121.0,83.0,1,0,0,2.1512393000302836,'click_1',1.460005296394229e-05,819.0097024000133,0.00872370001161471,,0.0021996000432409346,0.0021996000432409346,819.5124932000181,819.5124932000181,819.5124932000181,0.011542599997483194,-82.0,124.0,1,0,0,2.2823270999942906,'click_2',1.4199991710484028e-05,0.008921400003600866,,,13,001,control_mbs,25,f,18,1,ale_ila,2024-04-22_17h08.40.556,CPO_EEG,2022.2.1,99.82719910415807,
stimoli/02.subtle/JF2_Fear.mp4,fear,subtle,femmina,6,10,1646,926,2,,,,,,,,,,,,,,,,,0,0,0,0,,,,,,,,,0,31,31,1,,,0.15329270000802353,823.4469104000018,0.16069559997413307,0.0006828000186942518,0.0006828000186942518,833.7950841999846,833.7950841999846,0.009774400037713349,31.0,-145.0,1,0,0,3.2981227000127546,'click_1',2.0099978428333998e-05,837.0937251999858,0.008701899962034076,,0.002193799999076873,0.002193799999076873,837.596495500009,837.596495500009,837.596495500009,0.011459900008048862,-87.0,-116.0,1,0,0,1.135883199982345,'click_2',1.3999990187585354e-05,0.008690699993167073,,,13,001,control_mbs,25,f,18,1,ale_ila,2024-04-22_17h08.40.556,CPO_EEG,2022.2.1,99.82719910415807,
stimoli/01.full/F01-Neutral-Face Forward.mp4,neutral,full,femmina,1,6,720,576,53,,,,,,,,,,,,,,,,,0,0,0,0,,,,,,,,,0,32,32,52,,,0.14799460000358522,840.3793511000113,0.15534860000479966,0.0007126000127755105,0.0007126000127755105,846.3275326000294,846.3275326000294,0.009834099968429655,-22.0,94.0,1,0,0,2.432287300005555,'click_1',1.4199991710484028e-05,848.7604503000039,0.009009100031107664,,0.0024640000192448497,0.0024640000192448497,849.2632341000135,849.2632341000135,849.2632341000135,0.011797900020610541,-56.0,78.0,1,0,0,3.7604527000221424,'click_2',1.4300050679594278e-05,0.008945700014010072,,,13,001,control_mbs,25,f,18,1,ale_ila,2024-04-22_17h08.40.556,CPO_EEG,2022.2.1,99.82719910415807,
stimoli/02.subtle/JF2_Anger.mp4,angry,subtle,femmina,6,9,1646,926,6,,,,,,,,,,,,,,,,,0,0,0,0,,,,,,,,,0,33,33,5,,,0.15326280001318082,854.6755994000123,0.16048600000794977,0.0007989000296220183,0.0007989000296220183,864.1086730000097,864.1086730000097,0.009678800008259714,-13.0,100.0,1,0,0,1.7085605000029318,'click_1',1.4599994756281376e-05,865.8180334999925,0.008945400011725724,,0.002362400002311915,0.002362400002311915,866.3207837000373,866.3207837000373,866.3207837000373,0.011695599998347461,-82.0,50.0,1,0,0,2.9666390999918804,'click_2',1.4199991710484028e-05,0.008808499958831817,,,13,001,control_mbs,25,f,18,1,ale_ila,2024-04-22_17h08.40.556,CPO_EEG,2022.2.1,99.82719910415807,
stimoli/02.subtle/JM2_Fear.mp4,fear,subtle,maschio,8,10,1646,926,4,,,,,,,,,,,,,,,,,0,0,0,0,,,,,,,,,0,34,34,3,,,0.1508529999991879,870.9368943999871,0.1580046999733895,0.0006983999628573656,0.0006983999628573656,881.4871808000025,881.4871808000025,0.009722099988721311,40.0,-136.0,1,0,0,3.4485085000051185,'click_1',1.4999997802078724e-05,884.9362906999886,0.008868300006724894,,0.002421200042590499,0.002421200042590499,885.4391440000036,885.4391440000036,885.4391440000036,0.011717599991243333,113.0,-14.0,1,0,0,1.4185203000088222,'click_2',1.3899989426136017e-05,0.007734599988907576,,,13,001,control_mbs,25,f,18,1,ale_ila,2024-04-22_17h08.40.556,CPO_EEG,2022.2.1,99.82719910415807,
stimoli/01.full/M02-Fear-Face Forward.mp4,fear,full,maschio,3,6,720,576,31,,,,,,,,,,,,,,,,,0,0,0,0,,,,,,,,,0,35,35,30,,,0.14236549998167902,888.4990534000099,0.14984679996268824,0.0007893999572843313,0.0007893999572843313,894.4517416000017,894.4517416000017,0.009887999971397221,28.0,-139.0,1,0,0,1.9405713999876752,'click_1',1.4800054486840963e-05,896.3928539000335,0.008883400005288422,,0.0021848000469617546,0.0021848000469617546,896.8954453000333,896.8954453000333,896.8954453000333,0.011480400047730654,-71.0,-113.0,1,0,0,1.729369000007864,'click_2',1.4099990949034691e-05,0.008871499972883612,,,13,001,control_mbs,25,f,18,1,ale_ila,2024-04-22_17h08.40.556,CPO_EEG,2022.2.1,99.82719910415807,
stimoli/01.full/F01-Disgust-Face Forward.mp4,disgusted,full,femmina,1,6,720,576,37,,,,,,,,,,,,,,,,,0,0,0,0,,,,,,,,,0,36,36,36,,,0.1458608999964781,900.2694368000375,0.15313099999912083,0.0008891000179573894,0.0008891000179573894,906.2205637000152,906.2205637000152,0.009693300002254546,-165.0,102.0,1,0,0,1.839427099970635,'click_1',1.5700003132224083e-05,908.0608976000221,0.008888299984391779,,0.00247440004022792,0.00247440004022792,908.5636956000235,908.5636956000235,908.5636956000235,0.011733299994375557,-164.0,104.0,1,0,0,2.9559625000110827,'click_2',1.4199991710484028e-05,0.008951099996920675,,,13,001,control_mbs,25,f,18,1,ale_ila,2024-04-22_17h08.40.556,CPO_EEG,2022.2.1,99.82719910415807,
stimoli/02.subtle/JM2_Neutral.mp4,neutral,subtle,maschio,8,10,1646,926,28,,,,,,,,,,,,,,,,,0,0,0,0,,,,,,,,,0,37,37,27,,,0.14431689999764785,913.1628537999932,0.1516822999692522,0.0007100999937392771,0.0007100999937392771,924.0715483000386,924.0715483000386,0.009815400000661612,90.0,16.0,1,0,0,2.6945976999704726,'click_1',1.7700018361210823e-05,926.7666893000132,0.008801900024991482,,0.0023710000095888972,0.0023710000095888972,927.2698379000067,927.2698379000067,927.2698379000067,0.012063700007274747,89.0,16.0,1,0,0,2.493130899965763,'click_2',1.4199991710484028e-05,0.00911319995066151,,,13,001,control_mbs,25,f,18,1,ale_ila,2024-04-22_17h08.40.556,CPO_EEG,2022.2.1,99.82719910415807,
stimoli/01.full/M03-Anger-Face Forward.mp4,angry,full,maschio,4,6,720,576,36,,,,,,,,,,,,,,,,,0,0,0,0,,,,,,,,,0,38,38,35,,,0.14622179995058104,931.4077677000314,0.15360439999494702,0.0007208000170066953,0.0007208000170066953,937.358389400004,937.358389400004,0.009772000019438565,-18.0,148.0,1,0,0,2.2620880999602377,'click_1',1.5400000847876072e-05,939.6212386999978,0.00901859998703003,,0.0024756999919191003,0.0024756999919191003,940.1240507999901,940.1240507999901,940.1240507999901,0.011821299965959042,-21.0,146.0,1,0,0,2.0612211999832653,'click_2',1.3899989426136017e-05,0.009092699969187379,,,13,001,control_mbs,25,f,18,1,ale_ila,2024-04-22_17h08.40.556,CPO_EEG,2022.2.1,99.82719910415807,
stimoli/01.full/M02-Neutral-Face Forward.mp4,neutral,full,maschio,3,6,720,576,55,,,,,,,,,,,,,,,,,0,0,0,0,,,,,,,,,0,39,39,54,,,0.14559099997859448,943.8297714000219,0.15307469997787848,0.0008057999657467008,0.0008057999657467008,949.7810204999987,949.7810204999987,0.009853399998974055,2.0,46.0,1,0,0,3.8913190999883227,'click_1',1.4999997802078724e-05,953.6729323000181,0.008829200000036508,,0.002261199988424778,0.002261199988424778,954.1757195999962,954.1757195999962,954.1757195999962,0.011631799978204072,-6.0,-3.0,1,0,0,1.538109200017061,'click_2',1.799996243789792e-05,0.008809699967969209,,,13,001,control_mbs,25,f,18,1,ale_ila,2024-04-22_17h08.40.556,CPO_EEG,2022.2.1,99.82719910415807,
stimoli/02.subtle/JF2_Happiness.mp4,happy,subtle,femmina,6,9,1646,926,14,,,,,,,,,,,,,,,,,0,0,0,0,,,,,,,,,0,40,40,13,,,0.14689389994600788,957.359852100024,0.15468069998314604,0.0006862000445835292,0.0006862000445835292,966.7884724999894,966.7884724999894,0.009782100038137287,164.0,30.0,1,0,0,4.233168700011447,'click_1',1.4699995517730713e-05,971.0222277999856,0.008848700032103807,,0.002204200020059943,0.002204200020059943,971.5248846000177,971.5248846000177,971.5248846000177,0.011517700040712953,112.0,79.0,1,0,0,1.2667535000364296,'click_2',2.1899992134422064e-05,0.008794100023806095,,,13,001,control_mbs,25,f,18,1,ale_ila,2024-04-22_17h08.40.556,CPO_EEG,2022.2.1,99.82719910415807,
stimoli/01.full/F01-Fear-Face Forward.mp4,fear,full,femmina,1,6,720,576,29,,,,,,,,,,,,,,,,,0,0,0,0,,,,,,,,,0,41,41,28,,,0.1492017999989912,974.4396020999993,0.15648439998039976,0.000692299974616617,0.000692299974616617,980.396408700035,980.396408700035,0.009763400012161583,-77.0,-123.0,1,0,0,1.3873867999645881,'click_1',1.4999997802078724e-05,981.7842731000273,0.008742300036828965,,0.002249700017273426,0.002249700017273426,982.2871110000415,982.2871110000415,982.2871110000415,0.011576800025068223,25.0,-139.0,1,0,0,1.3871635000105016,'click_2',1.4599994756281376e-05,0.008967700006905943,,,13,001,control_mbs,25,f,18,1,ale_ila,2024-04-22_17h08.40.556,CPO_EEG,2022.2.1,99.82719910415807,
stimoli/01.full/M03-Sadness-Face Forward.mp4,sad,full,maschio,4,6,720,576,48,,,,,,,,,,,,,,,,,0,0,0,0,,,,,,,,,0,42,42,47,,,0.14240800001425669,985.3155290000141,0.1497421000385657,0.0007097999914549291,0.0007097999914549291,991.2695934000076,991.2695934000076,0.009745499992277473,-15.0,-99.0,1,0,0,5.912544600025285,'click_1',1.4499993994832039e-05,997.1825510000344,0.008685900014825165,,0.002487100020516664,0.002487100020516664,997.6854908000096,997.6854908000096,997.6854908000096,0.011629300017375499,-99.0,-23.0,1,0,0,1.4979142000083812,'click_2',1.4199991710484028e-05,0.008863600029144436,,,13,001,control_mbs,25,f,18,1,ale_ila,2024-04-22_17h08.40.556,CPO_EEG,2022.2.1,99.82719910415807,
stimoli/01.full/M02-Joy-Face Forward.mp4,happy,full,maschio,3,6,720,576,43,,,,,,,,,,,,,,,,,0,0,0,0,,,,,,,,,0,43,43,42,,,0.14963669999269769,1000.8321898999857,0.1571438999962993,0.0008187000057660043,0.0008187000057660043,1006.7888143000309,1006.7888143000309,0.00969709997298196,55.0,79.0,1,0,0,3.2874191000009887,'click_1',1.580000389367342e-05,1010.077102900017,0.008848599973134696,,0.0025010000099428,0.0025010000099428,1010.5800632000319,1010.5800632000319,1010.5800632000319,0.011825900000985712,56.0,81.0,1,0,0,2.1614539999864064,'click_2',1.4199991710484028e-05,0.008817299967631698,,,13,001,control_mbs,25,f,18,1,ale_ila,2024-04-22_17h08.40.556,CPO_EEG,2022.2.1,99.82719910415807,
stimoli/01.full/M02-Sadness-Face Forward.mp4,sad,full,maschio,3,6,720,576,47,,,,,,,,,,,,,,,,,0,0,0,0,,,,,,,,,0,44,44,46,,,0.14207980001810938,1014.3822361000348,0.14908349997131154,0.0006929000373929739,0.0006929000373929739,1019.9757279999903,1019.9757279999903,0.009847500012256205,-88.0,-137.0,1,0,0,2.282474200008437,'click_1',1.5099998563528061e-05,1022.258385299996,0.008555900014471263,,0.002285399998072535,0.002285399998072535,1022.7613548000227,1022.7613548000227,1022.7613548000227,0.011569500027690083,-73.0,-124.0,1,0,0,2.4238145999843255,'click_2',1.839996548369527e-05,0.008205599966458976,,,13,001,control_mbs,25,f,18,1,ale_ila,2024-04-22_17h08.40.556,CPO_EEG,2022.2.1,99.82719910415807,
stimoli/01.full/M03-Disgust-Face Forward.mp4,disgusted,full,maschio,4,6,720,576,40,,,,,,,,,,,,,,,,,0,0,0,0,,,,,,,,,0,45,45,39,,,0.14035599998896942,1026.8244627999957,0.1477681999676861,0.0006865999894216657,0.0006865999894216657,1032.780364300008,1032.780364300008,0.009746399999130517,-36.0,195.0,1,0,0,1.6284977999748662,'click_1',1.4599994756281376e-05,1034.4094496000325,0.00879340001847595,,0.0023672999814152718,0.0023672999814152718,1034.9121118999901,1034.9121118999901,1034.9121118999901,0.011465799994766712,-2.0,2.0,1,0,0,2.111430599994492,'click_2',1.4199991710484028e-05,0.008903399982955307,,,13,001,control_mbs,25,f,18,1,ale_ila,2024-04-22_17h08.40.556,CPO_EEG,2022.2.1,99.82719910415807,
stimoli/02.subtle/JM1_Disgust.mp4,disgusted,subtle,maschio,7,10,1646,926,11,,,,,,,,,,,,,,,,,0,0,0,0,,,,,,,,,0,46,46,10,,,0.14674870000453666,1038.6694122999907,0.15421780000906438,0.000666000007186085,0.000666000007186085,1049.0242258000071,1049.0242258000071,0.009726899967063218,-156.0,110.0,1,0,0,1.1963586000492796,'click_1',1.460005296394229e-05,1050.221192100027,0.008847700024489313,,0.0023436000337824225,0.0023436000337824225,1050.7239991000388,1050.7239991000388,1050.7239991000388,0.011696400004439056,0.0,1.0,1,0,0,0.5725944000296295,'click_2',1.4199991710484028e-05,0.008973599993623793,,,13,001,control_mbs,25,f,18,1,ale_ila,2024-04-22_17h08.40.556,CPO_EEG,2022.2.1,99.82719910415807,
stimoli/02.subtle/JF1_Neutral.mp4,neutral,subtle,femmina,5,10,1646,926,25,,,,,,,,,,,,,,,,,0,0,0,0,,,,,,,,,0,47,47,24,,,0.14645020000170916,1052.941919200006,0.1538871999946423,0.0008515999652445316,0.0008515999652445316,1063.698463800014,1063.698463800014,0.009767399984411895,28.0,96.0,1,0,0,3.408078199950978,'click_1',1.4899997040629387e-05,1067.1073395999847,0.008900300017558038,,0.0025101000210270286,0.0025101000210270286,1067.6101171000046,1067.6101171000046,1067.6101171000046,0.011714000022038817,36.0,93.0,1,0,0,1.1657062000012957,'click_2',1.4399993233382702e-05,0.009030999965034425,,,13,001,control_mbs,25,f,18,1,ale_ila,2024-04-22_17h08.40.556,CPO_EEG,2022.2.1,99.82719910415807,
stimoli/02.subtle/JF1_Sadness.mp4,sad,subtle,femmina,5,10,1646,926,17,,,,,,,,,,,,,,,,,0,0,0,0,,,,,,,,,0,48,48,16,,,0.14735440001823008,1070.4220672000083,0.15460880001774058,0.0007089999853633344,0.0007089999853633344,1081.1762364000315,1081.1762364000315,0.009724600007757545,-27.0,-140.0,1,0,0,1.1659734999993816,'click_1',1.5099998563528061e-05,1082.3427939999965,0.00884080003015697,,0.00254840002162382,0.00254840002162382,1082.8457804000354,1082.8457804000354,1082.8457804000354,0.011819200008176267,-18.0,-147.0,1,0,0,1.538316800026223,'click_2',1.4099990949034691e-05,0.008803799981251359,,,13,001,control_mbs,25,f,18,1,ale_ila,2024-04-22_17h08.40.556,CPO_EEG,2022.2.1,99.82719910415807,
stimoli/01.full/M03-Joy-Face Forward.mp4,happy,full,maschio,4,6,720,576,44,,,,,,,,,,,,,,,,,0,0,0,0,,,,,,,,,0,49,49,43,,,0.14816779998363927,1086.0309576999862,0.15534609998576343,0.0008429999579675496,0.0008429999579675496,1091.9799646000029,1091.9799646000029,0.009795299964025617,111.0,68.0,1,0,0,3.146449699997902,'click_1',1.5199999324977398e-05,1095.1271766999853,0.008962600026279688,,0.0024734000326134264,0.0024734000326134264,1095.6300877000322,1095.6300877000322,1095.6300877000322,0.01188240002375096,120.0,67.0,1,0,0,2.0307054999866523,'click_2',1.5900004655122757e-05,0.00893109996104613,,,13,001,control_mbs,25,f,18,1,ale_ila,2024-04-22_17h08.40.556,CPO_EEG,2022.2.1,99.82719910415807,
stimoli/01.full/F01-Surprise-Face Forward.mp4,surprised,full,femmina,1,6,720,576,49,,,,,,,,,,,,,,,,,0,0,0,0,,,,,,,,,0,50,50,48,,,0.1418963999603875,1099.3014749999857,0.14922039996599779,0.0007059999625198543,0.0007059999625198543,1105.2545411000028,1105.2545411000028,0.00980519998120144,18.0,-204.0,1,0,0,1.306724599970039,'click_1',1.4199991710484028e-05,1106.5620718999999,0.009085899975616485,,0.0026632000226527452,0.0026632000226527452,1107.064871200011,1107.064871200011,1107.064871200011,0.011925300001166761,23.0,-197.0,1,0,0,2.292172399989795,'click_2',1.4699995517730713e-05,0.008892199955880642,,,13,001,control_mbs,25,f,18,1,ale_ila,2024-04-22_17h08.40.556,CPO_EEG,2022.2.1,99.82719910415807,
stimoli/02.subtle/JM1_Fear.mp4,fear,subtle,maschio,7,10,1646,926,3,,,,,,,,,,,,,,,,,0,0,0,0,,,,,,,,,0,51,51,2,,,0.1437706999713555,1110.999597200018,0.151043199992273,0.000679599994327873,0.000679599994327873,1121.3555492000305,1121.3555492000305,0.009832100011408329,28.0,-156.0,1,0,0,1.4374585999757983,'click_1',2.069998299703002e-05,1122.7936770000379,0.009053100016899407,,0.0021465999889187515,0.0021465999889187515,1123.2961668000207,1123.2961668000207,1123.2961668000207,0.011532999982591718,-85.0,-115.0,1,0,0,1.4073728999937885,'click_2',1.4299992471933365e-05,0.008801699965260923,,,13,001,control_mbs,25,f,18,1,ale_ila,2024-04-22_17h08.40.556,CPO_EEG,2022.2.1,99.82719910415807,
stimoli/02.subtle/JM2_Sadness.mp4,sad,subtle,maschio,8,10,1646,926,20,,,,,,,,,,,,,,,,,0,0,0,0,,,,,,,,,0,52,52,19,,,0.14578439999604598,1126.3480659000343,0.1531091000069864,0.0006809000042267144,0.0006809000042267144,1136.9041516000289,1136.9041516000289,0.00979500001994893,106.0,15.0,1,0,0,2.12071940000169,'click_1',1.4899997040629387e-05,1139.0255839999882,0.009056099981535226,,0.0024901999859139323,0.0024901999859139323,1139.5281741000363,1139.5281741000363,1139.5281741000363,0.011657600000035018,-9.0,-99.0,1,0,0,2.3929673999664374,'click_2',1.4299992471933365e-05,0.008804999990388751,,,13,001,control_mbs,25,f,18,1,ale_ila,2024-04-22_17h08.40.556,CPO_EEG,2022.2.1,99.82719910415807,
stimoli/01.full/F03-Anger-Face Forward.mp4,angry,full,femmina,2,6,720,576,34,,,,,,,,,,,,,,,,,0,0,0,0,,,,,,,,,0,53,53,33,,,0.14971689996309578,1143.5694112000056,0.15660469996510074,0.0007083999807946384,0.0007083999807946384,1149.5263697000337,1149.5263697000337,0.009776499995496124,-17.0,135.0,1,0,0,2.995767700020224,'click_1',1.4999997802078724e-05,1152.5229278000188,0.00905849999981001,,0.002731399959884584,0.002731399959884584,1153.0258356000413,1153.0258356000413,1153.0258356000413,0.011982699972577393,-78.0,121.0,1,0,0,2.1914724999805912,'click_2',1.5199999324977398e-05,0.008828599995467812,,,13,001,control_mbs,25,f,18,1,ale_ila,2024-04-22_17h08.40.556,CPO_EEG,2022.2.1,99.82719910415807,
stimoli/01.full/F01-Anger-Face Forward.mp4,angry,full,femmina,1,6,720,576,33,,,,,,,,,,,,,,,,,0,0,0,0,,,,,,,,,0,54,54,32,,,0.14838519995100796,1156.8648459000397,0.15597679995698854,0.0006785000441595912,0.0006785000441595912,1162.8135724000167,1162.8135724000167,0.009749800025019795,-115.0,77.0,1,0,0,3.559419400000479,'click_1',1.4999997802078724e-05,1166.3736436000327,0.008905299997422844,,0.002351699979044497,0.002351699979044497,1166.8763337000273,1166.8763337000273,1166.8763337000273,0.011612500005867332,-28.0,135.0,1,0,0,0.9450802999781445,'click_2',1.4599994756281376e-05,0.009007599961478263,,,13,001,control_mbs,25,f,18,1,ale_ila,2024-04-22_17h08.40.556,CPO_EEG,2022.2.1,99.82719910415807,
stimoli/01.full/F01-Sadness-Face Forward.mp4,sad,full,femmina,1,6,720,576,45,,,,,,,,,,,,,,,,,0,0,0,0,,,,,,,,,0,55,55,44,,,0.14920299994992092,1169.4695639000274,0.15666089998558164,0.0007090999861247838,0.0007090999861247838,1175.4173797999974,1175.4173797999974,0.0098423000308685,-11.0,-143.0,1,0,0,2.1717502999817953,'click_1',1.5600002370774746e-05,1177.5896240000147,0.008841599978040904,,0.0022555000032298267,0.0022555000032298267,1178.092374800006,1178.092374800006,1178.092374800006,0.01163779996568337,-14.0,-137.0,1,0,0,1.880443700007163,'click_2',1.4999997802078724e-05,0.008847000019159168,,,13,001,control_mbs,25,f,18,1,ale_ila,2024-04-22_17h08.40.556,CPO_EEG,2022.2.1,99.82719910415807,
,,,,,,,,,,,,,,,,,,,,,,,,,0,0,0,0,,,,,,,,,,,,,,,,,,,,,,,,,,,,,,,,,,,,,,,,,,,,,,,,,,,13,001,control_mbs,25,f,18,1,ale_ila,2024-04-22_17h08.40.556,CPO_EEG,2022.2.1,99.82719910415807,
,,,,,,,,,,,,,,,,,,,,,,,,,1,0,1,0,,,,,0,0,0,0,,,,,,,,,,,,,,,,,,,,,,,,,,,,,,,,,,,,,,,,,,,13,001,control_mbs,25,f,18,1,ale_ila,2024-04-22_17h08.40.556,CPO_EEG,2022.2.1,99.82719910415807,
stimoli/01.full/M03-Neutral-Face Forward.mp4,neutral,full,maschio,4,6,720,576,56,,,,,,,,,,,,,,,,,1,0,1,0,,,,,,,,,0,0,0,55,,,0.13281320000533015,1192.67994609999,0.14043960004346445,0.00070090004010126,0.00070090004010126,1198.6295719000045,1198.6295719000045,0.00976380001520738,0.0,0.0,1,0,0,0.5726639000349678,'click_1',1.4899997040629387e-05,1199.2028138000169,0.008495599962770939,,0.001711399992927909,0.001711399992927909,1199.705267500016,1199.705267500016,1199.705267500016,0.010970100003760308,0.0,0.0,1,0,0,0.954880100034643,'click_2',1.4499993994832039e-05,0.008627499977592379,,,13,001,control_mbs,25,f,18,1,ale_ila,2024-04-22_17h08.40.556,CPO_EEG,2022.2.1,99.82719910415807,
stimoli/02.subtle/JF1_Fear.mp4,fear,subtle,femmina,5,10,1646,926,1,,,,,,,,,,,,,,,,,1,0,1,0,,,,,,,,,0,1,1,0,,,0.139327599958051,1202.298639399989,0.14662319998024032,0.0005956999957561493,0.0005956999957561493,1213.0504505999852,1213.0504505999852,0.00982159998966381,-84.0,-113.0,1,0,0,1.9904079000116326,'click_1',1.5199999324977398e-05,1215.041225699999,0.008833999978378415,,0.0023160999990068376,0.0023160999990068376,1215.5440119000268,1215.5440119000268,1215.5440119000268,0.011641499993856996,117.0,-83.0,1,0,0,2.26214250002522,'click_2',1.4999997802078724e-05,0.008574399980716407,,,13,001,control_mbs,25,f,18,1,ale_ila,2024-04-22_17h08.40.556,CPO_EEG,2022.2.1,99.82719910415807,
stimoli/01.full/F03-Fear-Face Forward.mp4,fear,full,femmina,2,6,720,576,30,,,,,,,,,,,,,,,,,1,0,1,0,,,,,,,,,0,2,2,29,,,0.13617299997713417,1219.4412804000312,0.14357700000982732,0.0008367999689653516,0.0008367999689653516,1225.3901295000105,1225.3901295000105,0.009752999991178513,-125.0,-183.0,1,0,0,1.5776844000210986,'click_1',1.5199999324977398e-05,1226.9686265999917,0.008830000006128103,,0.0023800000199116766,0.0023800000199116766,1227.471572200011,1227.471572200011,1227.471572200011,0.0118023999966681,-125.0,-184.0,1,0,0,2.6741583000402898,'click_2',1.4499993994832039e-05,0.00913570000557229,,,13,001,control_mbs,25,f,18,1,ale_ila,2024-04-22_17h08.40.556,CPO_EEG,2022.2.1,99.82719910415807,
stimoli/02.subtle/JF2_Sadness.mp4,sad,subtle,femmina,6,8,1646,926,18,,,,,,,,,,,,,,,,,1,0,1,0,,,,,,,,,0,3,3,17,,,0.1417107000015676,1231.7861155000282,0.14902419998543337,0.0008103000000119209,0.0008103000000119209,1240.0938737000106,1240.0938737000106,0.009705199976451695,-154.0,97.0,1,0,0,1.7793074999935925,'click_1',1.5400000847876072e-05,1241.8739014000166,0.00884660001611337,,0.0024551000096835196,0.0024551000096835196,1242.3766059000045,1242.3766059000045,1242.3766059000045,0.011561499966774136,-11.0,-149.0,1,0,0,1.7192141999839805,'click_2',1.4699995517730713e-05,0.008967900008428842,,,13,001,control_mbs,25,f,18,1,ale_ila,2024-04-22_17h08.40.556,CPO_EEG,2022.2.1,99.82719910415807,
stimoli/01.full/F03-Sadness-Face Forward.mp4,sad,full,femmina,2,6,720,576,46,,,,,,,,,,,,,,,,,1,0,1,0,,,,,,,,,0,4,4,45,,,0.1357294999761507,1245.730697299994,0.1432316999998875,0.0007042000070214272,0.0007042000070214272,1251.6797140000272,1251.6797140000272,0.009766999981366098,-41.0,-210.0,1,0,0,2.0003801000420935,'click_1',1.479999627918005e-05,1253.680677700031,0.00881249998928979,,0.002203500014729798,0.002203500014729798,1254.1834578000125,1254.1834578000125,1254.1834578000125,0.011598800017964095,-40.0,-188.0,1,0,0,4.022570899978746,'click_2',1.4099990949034691e-05,0.008762600016780198,,,13,001,control_mbs,25,f,18,1,ale_ila,2024-04-22_17h08.40.556,CPO_EEG,2022.2.1,99.82719910415807,
stimoli/02.subtle/JF2_Happiness.mp4,happy,subtle,femmina,6,9,1646,926,14,,,,,,,,,,,,,,,,,1,0,1,0,,,,,,,,,0,5,5,13,,,0.14005380001617596,1259.8449578,0.147511699993629,0.0006892000092193484,0.0006892000092193484,1269.2791870000074,1269.2791870000074,0.009892300004139543,126.0,70.0,1,0,0,3.4987541000009514,'click_1',1.5199999324977398e-05,1272.7784456000081,0.008903199981432408,,0.0024769999436102808,0.0024769999436102808,1273.281284400029,1273.281284400029,1273.281284400029,0.011777799983974546,148.0,21.0,1,0,0,1.2968246000236832,'click_2',1.4299992471933365e-05,0.00877549999859184,,,13,001,control_mbs,25,f,18,1,ale_ila,2024-04-22_17h08.40.556,CPO_EEG,2022.2.1,99.82719910415807,
stimoli/01.full/M03-Surprise-Face Forward.mp4,surprised,full,maschio,4,6,720,576,52,,,,,,,,,,,,,,,,,1,0,1,0,,,,,,,,,0,6,6,51,,,0.13985009997850284,1276.217039900017,0.14740799996070564,0.0010308999917469919,0.0010308999917469919,1282.1729736999841,1282.1729736999841,0.007250999973621219,32.0,-152.0,1,0,0,1.826415299961809,'click_1',1.4699995517730713e-05,1284.0027411000337,0.008742299978621304,,0.002296999969985336,0.002296999969985336,1284.5054527000175,1284.5054527000175,1284.5054527000175,0.011453900020569563,109.0,20.0,1,0,0,4.976976900012232,'click_2',1.3899989426136017e-05,0.008934199984651059,,,13,001,control_mbs,25,f,18,1,ale_ila,2024-04-22_17h08.40.556,CPO_EEG,2022.2.1,99.82719910415807,
stimoli/01.full/M02-Neutral-Face Forward.mp4,neutral,full,maschio,3,6,720,576,55,,,,,,,,,,,,,,,,,1,0,1,0,,,,,,,,,0,7,7,54,,,0.13593689998378977,1291.1172962000128,0.14330439997138456,0.0008297999738715589,0.0008297999738715589,1297.0680206000106,1297.0680206000106,0.009783699992112815,0.0,0.0,1,0,0,1.2161676000105217,'click_1',1.5600002370774746e-05,1298.2851587000187,0.00907019997248426,,0.0022072999854572117,0.0022072999854572117,1298.7876720000058,1298.7876720000058,1298.7876720000058,0.01159509998979047,0.0,0.0,1,0,0,0.3818101000506431,'click_2',1.4200049918144941e-05,0.008908600022550672,,,13,001,control_mbs,25,f,18,1,ale_ila,2024-04-22_17h08.40.556,CPO_EEG,2022.2.1,99.82719910415807,
stimoli/02.subtle/JM2_Surprise.mp4,surprised,subtle,maschio,8,10,1646,926,24,,,,,,,,,,,,,,,,,1,0,1,0,,,,,,,,,0,8,8,23,,,0.13705370004754514,1300.805085400003,0.1442053000209853,0.0006611999706365168,0.0006611999706365168,1311.7202457000385,1311.7202457000385,0.009679100010544062,33.0,-148.0,1,0,0,1.9701437000185251,'click_1',1.479999627918005e-05,1313.691075699986,0.008906700008083135,,0.002393400005530566,0.002393400005530566,1314.1937742999871,1314.1937742999871,1314.1937742999871,0.011642900004517287,80.0,-120.0,1,0,0,1.1964167000260204,'click_2',1.479999627918005e-05,0.008849200035911053,,,13,001,control_mbs,25,f,18,1,ale_ila,2024-04-22_17h08.40.556,CPO_EEG,2022.2.1,99.82719910415807,
stimoli/02.subtle/JM1_Surprise.mp4,surprised,subtle,maschio,7,10,1646,926,23,,,,,,,,,,,,,,,,,1,0,1,0,,,,,,,,,0,9,9,22,,,0.13685930002247915,1317.0260522000026,0.14429670001845807,0.0007275000098161399,0.0007275000098161399,1327.3778372000088,1327.3778372000088,0.009721500042360276,34.0,-144.0,1,0,0,1.487559599976521,'click_1',1.479999627918005e-05,1328.8659855999867,0.008801800024230033,,0.0024153999984264374,0.0024153999984264374,1329.3688642000197,1329.3688642000197,1329.3688642000197,0.01167649996932596,128.0,-79.0,1,0,0,2.3023702000500634,'click_2',1.4699995517730713e-05,0.008805799996480346,,,13,001,control_mbs,25,f,18,1,ale_ila,2024-04-22_17h08.40.556,CPO_EEG,2022.2.1,99.82719910415807,
stimoli/02.subtle/JF1_Surprise.mp4,surprised,subtle,femmina,5,10,1646,926,21,,,,,,,,,,,,,,,,,1,0,1,0,,,,,,,,,0,10,10,20,,,0.1473398999660276,1333.3174831999931,0.15475849999347702,0.0006689999718219042,0.0006689999718219042,1344.0725341000361,1344.0725341000361,0.00986439996631816,-129.0,21.0,1,0,0,2.0809797000256367,'click_1',1.479999627918005e-05,1346.15395430004,0.00882310001179576,,0.00237649999326095,0.00237649999326095,1346.6567080999957,1346.6567080999957,1346.6567080999957,0.011582800012547523,26.0,-97.0,1,0,0,1.6891386000206694,'click_2',1.7600017599761486e-05,0.008886799972970039,,,13,001,control_mbs,25,f,18,1,ale_ila,2024-04-22_17h08.40.556,CPO_EEG,2022.2.1,99.82719910415807,
stimoli/02.subtle/JM2_Sadness.mp4,sad,subtle,maschio,8,10,1646,926,20,,,,,,,,,,,,,,,,,1,0,1,0,,,,,,,,,0,11,11,19,,,0.13683119998313487,1349.9818430999876,0.14413289999356493,0.0007016999879851937,0.0007016999879851937,1360.5362129000132,1360.5362129000132,0.009803100023418665,0.0,0.0,1,0,0,0.5223403999698348,'click_1',1.4999997802078724e-05,1361.0591530000092,0.008946599962655455,,0.002203799958806485,0.002203799958806485,1361.561792500026,1361.561792500026,1361.561792500026,0.011617999989539385,0.0,0.0,1,0,0,0.38196859997697175,'click_2',1.4300050679594278e-05,0.008913199999369681,,,13,001,control_mbs,25,f,18,1,ale_ila,2024-04-22_17h08.40.556,CPO_EEG,2022.2.1,99.82719910415807,
stimoli/01.full/F03-Surprise-Face Forward.mp4,surprised,full,femmina,2,6,720,576,50,,,,,,,,,,,,,,,,,1,0,1,0,,,,,,,,,0,12,12,49,,,0.13545760000124574,1363.5779432000127,0.142816900042817,0.0006844999734312296,0.0006844999734312296,1369.5268161999993,1369.5268161999993,0.009853499999735504,23.0,-153.0,1,0,0,1.4577429000055417,'click_1',1.5300000086426735e-05,1370.984961100039,0.008756999974139035,,0.0022962000221014023,0.0022962000221014023,1371.4878420000314,1371.4878420000314,1371.4878420000314,0.01166630000807345,27.0,-150.0,1,0,0,1.1864600999979302,'click_2',1.5300000086426735e-05,0.008594499959144741,,,13,001,control_mbs,25,f,18,1,ale_ila,2024-04-22_17h08.40.556,CPO_EEG,2022.2.1,99.82719910415807,
stimoli/02.subtle/JF2_Fear.mp4,fear,subtle,femmina,6,10,1646,926,2,,,,,,,,,,,,,,,,,1,0,1,0,,,,,,,,,0,13,13,1,,,0.13903849996859208,1374.3128373000072,0.14697109995177016,0.0006836000247858465,0.0006836000247858465,1384.6618171000155,1384.6618171000155,0.009823700005654246,-55.0,-91.0,1,0,0,2.795676600013394,'click_1',1.4299992471933365e-05,1387.4581150999875,0.00895779998973012,,0.0020825000246986747,0.0020825000246986747,1387.9605680000386,1387.9605680000386,1387.9605680000386,0.011407600017264485,-117.0,-59.0,1,0,0,1.1364630999742076,'click_2',1.4299992471933365e-05,0.008099499973468482,,,13,001,control_mbs,25,f,18,1,ale_ila,2024-04-22_17h08.40.556,CPO_EEG,2022.2.1,99.82719910415807,
stimoli/02.subtle/JM1_Sadness.mp4,sad,subtle,maschio,7,10,1646,926,19,,,,,,,,,,,,,,,,,1,0,1,0,,,,,,,,,0,14,14,18,,,0.13744939997559413,1390.7332759000128,0.14473369996994734,0.0006819000118412077,0.0006819000118412077,1401.084085599985,1401.084085599985,0.00994900002842769,-77.0,-63.0,1,0,0,3.1972209999803454,'click_1',1.580000389367342e-05,1404.2817198000266,0.008849000034388155,,0.002363000006880611,0.002363000006880611,1404.7844710000209,1404.7844710000209,1404.7844710000209,0.011645900027360767,105.0,-25.0,1,0,0,2.4733884999877773,'click_2',1.4399993233382702e-05,0.008866599993780255,,,13,001,control_mbs,25,f,18,1,ale_ila,2024-04-22_17h08.40.556,CPO_EEG,2022.2.1,99.82719910415807,
stimoli/01.full/M03-Sadness-Face Forward.mp4,sad,full,maschio,4,6,720,576,48,,,,,,,,,,,,,,,,,1,0,1,0,,,,,,,,,0,15,15,47,,,0.13617229997180402,1408.8928662000108,0.1434859999571927,0.0007179999956861138,0.0007179999956861138,1414.8421295000007,1414.8421295000007,0.009860299993306398,-18.0,-95.0,1,0,0,5.218304500041995,'click_1',1.8900027498602867e-05,1420.0609331000014,0.008805399993434548,,0.0024474000092595816,0.0024474000092595816,1420.5638461000053,1420.5638461000053,1420.5638461000053,0.011713100015185773,-126.0,26.0,1,0,0,1.407559700019192,'click_2',1.4299992471933365e-05,0.008942799991928041,,,13,001,control_mbs,25,f,18,1,ale_ila,2024-04-22_17h08.40.556,CPO_EEG,2022.2.1,99.82719910415807,
stimoli/01.full/F01-Anger-Face Forward.mp4,angry,full,femmina,1,6,720,576,33,,,,,,,,,,,,,,,,,1,0,1,0,,,,,,,,,0,16,16,32,,,0.13723920000484213,1423.6077769999974,0.1449117999873124,0.0008015999919734895,0.0008015999919734895,1429.5557965000044,1429.5557965000044,0.009840400016400963,-21.0,146.0,1,0,0,2.0106015999917872,'click_1',1.5300000086426735e-05,1431.567083800037,0.008924199966713786,,0.0021279999637044966,0.0021279999637044966,1432.0696240999969,1432.0696240999969,1432.0696240999969,0.011481099994853139,-65.0,86.0,1,0,0,1.63940059999004,'click_2',1.479999627918005e-05,0.008763500023633242,,,13,001,control_mbs,25,f,18,1,ale_ila,2024-04-22_17h08.40.556,CPO_EEG,2022.2.1,99.82719910415807,
stimoli/01.full/F01-Disgust-Face Forward.mp4,disgusted,full,femmina,1,6,720,576,37,,,,,,,,,,,,,,,,,1,0,1,0,,,,,,,,,0,17,17,36,,,0.13644079997902736,1435.34437050001,0.14394500001799315,0.0006918000290170312,0.0006918000290170312,1441.2931051999913,1441.2931051999913,0.009875199990347028,-27.0,193.0,1,0,0,1.356898900005035,'click_1',2.0900042727589607e-05,1442.6504619999905,0.008809500024653971,,0.002661300008185208,0.002661300008185208,1443.1535396000254,1443.1535396000254,1443.1535396000254,0.011863499996252358,-23.0,123.0,1,0,0,1.3067337999818847,'click_2',1.4499993994832039e-05,0.008757299976423383,,,13,001,control_mbs,25,f,18,1,ale_ila,2024-04-22_17h08.40.556,CPO_EEG,2022.2.1,99.82719910415807,
stimoli/01.full/M02-Surprise-Face Forward.mp4,surprised,full,maschio,3,6,720,576,51,,,,,,,,,,,,,,,,,1,0,1,0,,,,,,,,,0,18,18,50,,,0.1361641999683343,1446.0954112000181,0.14356940001016483,0.0007184999994933605,0.0007184999994933605,1452.0465448999894,1452.0465448999894,0.009766999981366098,39.0,-154.0,1,0,0,3.7304457000573166,'click_1',1.550000160932541e-05,1455.7775668000104,0.008800900017376989,,0.0020469000446610153,0.0020469000446610153,1456.2801846000366,1456.2801846000366,1456.2801846000366,0.011465599993243814,35.0,-146.0,1,0,0,1.900665300025139,'click_2',1.4299992471933365e-05,0.00892069999827072,,,13,001,control_mbs,25,f,18,1,ale_ila,2024-04-22_17h08.40.556,CPO_EEG,2022.2.1,99.82719910415807,
stimoli/02.subtle/JM1_Fear.mp4,fear,subtle,maschio,7,10,1646,926,3,,,,,,,,,,,,,,,,,1,0,1,0,,,,,,,,,0,19,19,2,,,0.13710510003147647,1459.8166350999963,0.14444500004174188,0.0007167000439949334,0.0007167000439949334,1470.1685962000047,1470.1685962000047,0.009848700021393597,30.0,-98.0,1,0,0,2.010652300028596,'click_1',1.550000160932541e-05,1472.1799587000278,0.00907779997214675,,0.0022173000033944845,0.0022173000033944845,1472.6823197000194,1472.6823197000194,1472.6823197000194,0.011437299952376634,-54.0,-92.0,1,0,0,4.112551000027452,'click_2',1.4499993994832039e-05,0.008738899952732027,,,13,001,control_mbs,25,f,18,1,ale_ila,2024-04-22_17h08.40.556,CPO_EEG,2022.2.1,99.82719910415807,
stimoli/01.full/F01-Neutral-Face Forward.mp4,neutral,full,femmina,1,6,720,576,53,,,,,,,,,,,,,,,,,1,0,1,0,,,,,,,,,0,20,20,52,,,0.1351567999809049,1478.4292429999914,0.1427038999972865,0.0008354000165127218,0.0008354000165127218,1484.3789468000177,1484.3789468000177,0.010013899998739362,0.0,0.0,1,0,0,1.0450455999816768,'click_1',1.5199999324977398e-05,1485.4245017000358,0.008847800025250763,,0.002386300009675324,0.002386300009675324,1485.9273150000372,1485.9273150000372,1485.9273150000372,0.011678099981509149,0.0,0.0,1,0,0,0.3714230000041425,'click_2',1.3899989426136017e-05,0.008939800027292222,,,13,001,control_mbs,25,f,18,1,ale_ila,2024-04-22_17h08.40.556,CPO_EEG,2022.2.1,99.82719910415807,
stimoli/02.subtle/JF1_Neutral.mp4,neutral,subtle,femmina,5,10,1646,926,25,,,,,,,,,,,,,,,,,1,0,1,0,,,,,,,,,0,21,21,24,,,0.13856729998951778,1487.9360905000358,0.14587710000341758,0.0008604999748058617,0.0008604999748058617,1498.6885212000343,1498.6885212000343,0.009771600016392767,0.0,0.0,1,0,0,0.662927099969238,'click_1',1.580000389367342e-05,1499.352057799988,0.00875490001635626,,0.001941199996508658,0.001941199996508658,1499.8545902000042,1499.8545902000042,1499.8545902000042,0.011269400012679398,0.0,0.0,1,0,0,0.7639909000135958,'click_2',1.390004763379693e-05,0.008901200024411082,,,13,001,control_mbs,25,f,18,1,ale_ila,2024-04-22_17h08.40.556,CPO_EEG,2022.2.1,99.82719910415807,
stimoli/01.full/M02-Anger-Face Forward.mp4,angry,full,maschio,3,6,720,576,35,,,,,,,,,,,,,,,,,1,0,1,0,,,,,,,,,0,22,22,34,,,0.13660389999859035,1502.2539348999853,0.14387259999057278,0.0007093999884091318,0.0007093999884091318,1508.2033549000043,1508.2033549000043,0.009911099972669035,-52.0,79.0,1,0,0,3.2470476999878883,'click_1',1.5199999324977398e-05,1511.4510321000125,0.008932000026106834,,0.002216199995018542,0.002216199995018542,1511.9535447999951,1511.9535447999951,1511.9535447999951,0.011483700014650822,-93.0,18.0,1,0,0,4.3440823999699205,'click_2',1.4999997802078724e-05,0.008888799988199025,,,13,001,control_mbs,25,f,18,1,ale_ila,2024-04-22_17h08.40.556,CPO_EEG,2022.2.1,99.82719910415807,
stimoli/02.subtle/JF2_Surprise.mp4,surprised,subtle,femmina,6,10,1646,926,22,,,,,,,,,,,,,,,,,1,0,1,0,,,,,,,,,0,23,23,21,,,0.13890099996933714,1517.9353733999887,0.14620620000641793,0.0006871999939903617,0.0006871999939903617,1528.2862803000025,1528.2862803000025,0.009908000007271767,-74.0,122.0,1,0,0,1.347137400007341,'click_1',1.5199999324977398e-05,1529.6338078000117,0.008774799993261695,,0.0022492000134661794,0.0022492000134661794,1530.1365589000052,1530.1365589000052,1530.1365589000052,0.011525899986736476,-78.0,122.0,1,0,0,2.1617097999551333,'click_2',1.3699987903237343e-05,0.008649799972772598,,,13,001,control_mbs,25,f,18,1,ale_ila,2024-04-22_17h08.40.556,CPO_EEG,2022.2.1,99.82719910415807,
stimoli/01.full/F03-Anger-Face Forward.mp4,angry,full,femmina,2,6,720,576,34,,,,,,,,,,,,,,,,,1,0,1,0,,,,,,,,,0,24,24,33,,,0.13630799995735288,1533.9335419000126,0.14364679995924234,0.0007208000170066953,0.0007208000170066953,1539.8824985999963,1539.8824985999963,0.009879100020043552,-26.0,139.0,1,0,0,1.4980738000012934,'click_1',1.4699995517730713e-05,1541.380866100022,0.008651799988001585,,0.0022083999938331544,0.0022083999938331544,1541.8835867000162,1541.8835867000162,1541.8835867000162,0.011384299956262112,-75.0,-118.0,1,0,0,1.3872143999906257,'click_2',1.4099990949034691e-05,0.008973799995146692,,,13,001,control_mbs,25,f,18,1,ale_ila,2024-04-22_17h08.40.556,CPO_EEG,2022.2.1,99.82719910415807,
stimoli/02.subtle/JM2_Happiness.mp4,happy,subtle,maschio,8,10,1646,926,16,,,,,,,,,,,,,,,,,1,0,1,0,,,,,,,,,0,25,25,15,,,0.13702920003561303,1544.9063335999963,0.14397610002197325,0.000686699990183115,0.000686699990183115,1555.4613547000336,1555.4613547000336,0.00990320002892986,138.0,25.0,1,0,0,2.925444399996195,'click_1',1.4999997802078724e-05,1558.3873746999889,0.00900820002425462,,0.002757200039923191,0.002757200039923191,1558.890402399993,1558.890402399993,1558.890402399993,0.012048000004142523,141.0,31.0,1,0,0,2.191454200015869,'click_2',1.9599974621087313e-05,0.008884100010618567,,,13,001,control_mbs,25,f,18,1,ale_ila,2024-04-22_17h08.40.556,CPO_EEG,2022.2.1,99.82719910415807,
stimoli/01.full/F01-Fear-Face Forward.mp4,fear,full,femmina,1,6,720,576,29,,,,,,,,,,,,,,,,,1,0,1,0,,,,,,,,,0,26,26,28,,,0.13597060000756755,1562.7165602000314,0.14320609997957945,0.0007176999934017658,0.0007176999934017658,1568.6657568000373,1568.6657568000373,0.00992100004805252,41.0,-149.0,1,0,0,4.856908100016881,'click_1',1.4899997040629387e-05,1573.5232492000214,0.008994999981950969,,0.0024994999985210598,0.0024994999985210598,1574.0260262000374,1574.0260262000374,1574.0260262000374,0.011769000033382326,34.0,-144.0,1,0,0,1.669177999952808,'click_2',1.5199999324977398e-05,0.00881410000147298,,,13,001,control_mbs,25,f,18,1,ale_ila,2024-04-22_17h08.40.556,CPO_EEG,2022.2.1,99.82719910415807,
stimoli/02.subtle/JF2_Anger.mp4,angry,subtle,femmina,6,9,1646,926,6,,,,,,,,,,,,,,,,,1,0,1,0,,,,,,,,,0,27,27,5,,,0.1403466999763623,1577.33450430003,0.14773119997698814,0.0008158999844454229,0.0008158999844454229,1586.7694717000122,1586.7694717000122,0.009660799987614155,-115.0,179.0,1,0,0,2.0405478999600746,'click_1',1.4699995517730713e-05,1588.8109581000172,0.009016500029247254,,0.002621999999973923,0.002621999999973923,1589.313697900041,1589.313697900041,1589.313697900041,0.011776800034567714,-118.0,73.0,1,0,0,1.8093729999964125,'click_2',3.0099996365606785e-05,0.008841900038532913,,,13,001,control_mbs,25,f,18,1,ale_ila,2024-04-22_17h08.40.556,CPO_EEG,2022.2.1,99.82719910415807,
stimoli/02.subtle/JM2_Anger.mp4,angry,subtle,maschio,8,10,1646,926,8,,,,,,,,,,,,,,,,,1,0,1,0,,,,,,,,,0,28,28,7,,,0.13787289999891073,1592.7599358999869,0.14517269999487326,0.0006881000008434057,0.0006881000008434057,1603.6745040999958,1603.6745040999958,0.009873099974356592,-186.0,-33.0,1,0,0,2.463361400004942,'click_1',1.4999997802078724e-05,1606.138375999988,0.008930800016969442,,0.002298499981407076,0.002298499981407076,1606.6410614000051,1606.6410614000051,1606.6410614000051,0.011625599989201874,-37.0,-174.0,1,0,0,1.4478799999924377,'click_2',3.980001201853156e-05,0.008440500008873641,,,13,001,control_mbs,25,f,18,1,ale_ila,2024-04-22_17h08.40.556,CPO_EEG,2022.2.1,99.82719910415807,
stimoli/01.full/F01-Surprise-Face Forward.mp4,surprised,full,femmina,1,6,720,576,49,,,,,,,,,,,,,,,,,1,0,1,0,,,,,,,,,0,29,29,48,,,0.1369890000205487,1609.7247772000264,0.14436159998876974,0.0006828000186942518,0.0006828000186942518,1615.6726790000102,1615.6726790000102,0.009778000006917864,32.0,-135.0,1,0,0,1.3069214000133798,'click_1',1.5099998563528061e-05,1616.9800822000252,0.008804499986581504,,0.0024317000061273575,0.0024317000061273575,1617.48292020004,1617.48292020004,1617.48292020004,0.011676199967041612,39.0,-132.0,1,0,0,1.4593211999745108,'click_2',1.8200022168457508e-05,0.00896520004607737,,,13,001,control_mbs,25,f,18,1,ale_ila,2024-04-22_17h08.40.556,CPO_EEG,2022.2.1,99.82719910415807,
stimoli/02.subtle/JM1_Disgust.mp4,disgusted,subtle,maschio,7,10,1646,926,11,,,,,,,,,,,,,,,,,1,0,1,0,,,,,,,,,0,30,30,10,,,0.13850600004661828,1620.5796028000186,0.14573460002429783,0.0007833000272512436,0.0007833000272512436,1630.9306094000349,1630.9306094000349,0.00960819999454543,-150.0,99.0,1,0,0,2.0704426000011154,'click_1',1.6000005416572094e-05,1633.0020681000315,0.008998200006317347,,0.002442200027871877,0.002442200027871877,1633.5049309000024,1633.5049309000024,1633.5049309000024,0.011865400010719895,-80.0,128.0,1,0,0,1.859975699975621,'click_2',1.4599994756281376e-05,0.008774899994023144,,,13,001,control_mbs,25,f,18,1,ale_ila,2024-04-22_17h08.40.556,CPO_EEG,2022.2.1,99.82719910415807,
stimoli/01.full/M03-Anger-Face Forward.mp4,angry,full,maschio,4,6,720,576,36,,,,,,,,,,,,,,,,,1,0,1,0,,,,,,,,,0,31,31,35,,,0.13703550002537668,1637.0011169000063,0.14481760002672672,0.0006906000198796391,0.0006906000198796391,1642.9485506000347,1642.9485506000347,0.009724200004711747,-36.0,170.0,1,0,0,2.261932399997022,'click_1',1.4999997802078724e-05,1645.2111205999972,0.008889799995813519,,0.0025062999920919538,0.0025062999920919538,1645.7140182000003,1645.7140182000003,1645.7140182000003,0.011778999993111938,-41.0,173.0,1,0,0,1.3670526000205427,'click_2',1.479999627918005e-05,0.008734800037927926,,,13,001,control_mbs,25,f,18,1,ale_ila,2024-04-22_17h08.40.556,CPO_EEG,2022.2.1,99.82719910415807,
stimoli/02.subtle/JF1_Sadness.mp4,sad,subtle,femmina,5,10,1646,926,17,,,,,,,,,,,,,,,,,1,0,1,0,,,,,,,,,0,32,32,16,,,0.1385778000112623,1648.7185546000255,0.14594489999581128,0.000705899961758405,0.000705899961758405,1659.471626100014,1659.471626100014,0.009759099979419261,-21.0,-128.0,1,0,0,1.6784876000019722,'click_1',1.479999627918005e-05,1661.1507628000109,0.008889899996574968,,0.002310600015334785,0.002310600015334785,1661.6535741999978,1661.6535741999978,1661.6535741999978,0.01172110001789406,-20.0,-124.0,1,0,0,1.990765199996531,'click_2',1.5700003132224083e-05,0.008870000019669533,,,13,001,control_mbs,25,f,18,1,ale_ila,2024-04-22_17h08.40.556,CPO_EEG,2022.2.1,99.82719910415807,
stimoli/02.subtle/JM2_Fear.mp4,fear,subtle,maschio,8,10,1646,926,4,,,,,,,,,,,,,,,,,1,0,1,0,,,,,,,,,0,33,33,3,,,0.13796080002794042,1665.2808863000246,0.14508990000467747,0.0006710000452585518,0.0006710000452585518,1675.833120300027,1675.833120300027,0.00988690002122894,27.0,-144.0,1,0,0,1.2965665999799967,'click_1',1.4499993994832039e-05,1677.1300668999902,0.00881870003649965,,0.002291699987836182,0.002291699987836182,1677.632741999987,1677.632741999987,1677.632741999987,0.011501500033773482,30.0,-139.0,1,0,0,1.6183777999831364,'click_2',1.4199991710484028e-05,0.009005600004456937,,,13,001,control_mbs,25,f,18,1,ale_ila,2024-04-22_17h08.40.556,CPO_EEG,2022.2.1,99.82719910415807,
stimoli/01.full/F03-Disgust-Face Forward.mp4,disgusted,full,femmina,2,6,720,576,38,,,,,,,,,,,,,,,,,1,0,1,0,,,,,,,,,0,34,34,37,,,0.13641480001388118,1680.8863742999965,0.14371610002126545,0.0007939999923110008,0.0007939999923110008,1686.835832200013,1686.835832200013,0.009718900022562593,-31.0,188.0,1,0,0,1.2464009000104852,'click_1',1.7000013031065464e-05,1688.0828478999902,0.008714399999007583,,0.0016905000084079802,0.0016905000084079802,1688.5852583000087,1688.5852583000087,1688.5852583000087,0.011089400039054453,-120.0,88.0,1,0,0,2.011039500008337,'click_2',1.479999627918005e-05,0.00889549998100847,,,13,001,control_mbs,25,f,18,1,ale_ila,2024-04-22_17h08.40.556,CPO_EEG,2022.2.1,99.82719910415807,
stimoli/01.full/M02-Fear-Face Forward.mp4,fear,full,maschio,3,6,720,576,31,,,,,,,,,,,,,,,,,1,0,1,0,,,,,,,,,0,35,35,30,,,0.13507179997395724,1692.2300082999864,0.14232679997803643,0.0008552999934181571,0.0008552999934181571,1698.1799195000203,1698.1799195000203,0.009717700013425201,-94.0,-150.0,1,0,0,1.3468080000020564,'click_1',1.580000389367342e-05,1699.5277399999904,0.009032999980263412,,0.0025536000030115247,0.0025536000030115247,1700.03054040001,1700.03054040001,1700.03054040001,0.011848699999973178,32.0,-136.0,1,0,0,1.1961222999962047,'click_2',1.4599994756281376e-05,0.009023399965371937,,,13,001,control_mbs,25,f,18,1,ale_ila,2024-04-22_17h08.40.556,CPO_EEG,2022.2.1,99.82719910415807,
stimoli/02.subtle/JF1_Anger.mp4,angry,subtle,femmina,5,10,1646,926,5,,,,,,,,,,,,,,,,,1,0,1,0,,,,,,,,,0,36,36,4,,,0.139973999990616,1702.8654820999946,0.14730909996433184,0.0007333999965339899,0.0007333999965339899,1713.617369899992,1713.617369899992,0.00977710000006482,0.0,0.0,1,0,0,0.5319766000029631,'click_1',2.3500004317611456e-05,1714.1500722999917,0.00892530003329739,,0.0021946000051684678,0.0021946000051684678,1714.6525633999845,1714.6525633999845,1714.6525633999845,0.011450599995441735,0.0,0.0,1,0,0,0.39186239999253303,'click_2',1.4999997802078724e-05,0.008872799982782453,,,13,001,control_mbs,25,f,18,1,ale_ila,2024-04-22_17h08.40.556,CPO_EEG,2022.2.1,99.82719910415807,
stimoli/01.full/M03-Joy-Face Forward.mp4,happy,full,maschio,4,6,720,576,44,,,,,,,,,,,,,,,,,1,0,1,0,,,,,,,,,0,37,37,43,,,0.13614269997924566,1716.6794407999841,0.14350040000863373,0.0006081000319682062,0.0006081000319682062,1722.6287257000222,1722.6287257000222,0.009836100041866302,86.0,127.0,1,0,0,6.0434100000420585,'click_1',1.4699995517730713e-05,1728.6724633999984,0.008761000004597008,,0.0025576999760232866,0.0025576999760232866,1729.1754542000126,1729.1754542000126,1729.1754542000126,0.011791400029323995,136.0,31.0,1,0,0,1.2263098999974318,'click_2',2.629996743053198e-05,0.0086182999657467,,,13,001,control_mbs,25,f,18,1,ale_ila,2024-04-22_17h08.40.556,CPO_EEG,2022.2.1,99.82719910415807,
stimoli/01.full/M02-Joy-Face Forward.mp4,happy,full,maschio,3,6,720,576,43,,,,,,,,,,,,,,,,,1,0,1,0,,,,,,,,,0,38,38,42,,,0.13577029999578372,1732.0365617999923,0.14312189997872338,0.000853799981996417,0.000853799981996417,1737.9861595000257,1737.9861595000257,0.00982450001174584,128.0,79.0,1,0,0,1.8092237999662757,'click_1',1.4499993994832039e-05,1739.7962317999918,0.008977699966635555,,0.0025295999948866665,0.0025295999948866665,1740.2990737000364,1740.2990737000364,1740.2990737000364,0.011857899953611195,123.0,77.0,1,0,0,2.0913209000136703,'click_2',1.4599994756281376e-05,0.00892349996138364,,,13,001,control_mbs,25,f,18,1,ale_ila,2024-04-22_17h08.40.556,CPO_EEG,2022.2.1,99.82719910415807,
stimoli/02.subtle/JF2_Neutral.mp4,neutral,subtle,femmina,6,9,1646,926,26,,,,,,,,,,,,,,,,,1,0,1,0,,,,,,,,,0,39,39,25,,,0.14064960001269355,1744.02992250002,0.14803629997186363,0.0008277000160887837,0.0008277000160887837,1753.4636921000201,1753.4636921000201,0.009801100008189678,0.0,0.0,1,0,0,0.8439760999754071,'click_1',2.400000812485814e-05,1754.308445200033,0.008915800019167364,,0.002300599997397512,0.002300599997397512,1754.8111883000238,1754.8111883000238,1754.8111883000238,0.011650000000372529,-12.0,63.0,1,0,0,1.3269246999989264,'click_2',1.580000389367342e-05,0.008809400023892522,,,13,001,control_mbs,25,f,18,1,ale_ila,2024-04-22_17h08.40.556,CPO_EEG,2022.2.1,99.82719910415807,
stimoli/02.subtle/JM1_Neutral.mp4,neutral,subtle,maschio,7,10,1646,926,27,,,,,,,,,,,,,,,,,1,0,1,0,,,,,,,,,0,40,40,26,,,0.13606180000351742,1757.7729792000027,0.1434107000241056,0.0007673000218346715,0.0007673000218346715,1768.127011100005,1768.127011100005,0.00977559998864308,0.0,0.0,1,0,0,0.4918216999503784,'click_1',1.5099998563528061e-05,1768.6197162999888,0.009066800004802644,,0.002566400042269379,0.002566400042269379,1769.1227141999989,1769.1227141999989,1769.1227141999989,0.012070099997799844,0.0,32.0,1,0,0,0.8239223000127822,'click_2',1.3899989426136017e-05,0.009164699993561953,,,13,001,control_mbs,25,f,18,1,ale_ila,2024-04-22_17h08.40.556,CPO_EEG,2022.2.1,99.82719910415807,
stimoli/02.subtle/JM2_Disgust.mp4,disgusted,subtle,maschio,8,10,1646,926,12,,,,,,,,,,,,,,,,,1,0,1,0,,,,,,,,,0,41,41,11,,,0.1376655999920331,1771.5829199000145,0.14502649998757988,0.0006864999886602163,0.0006864999886602163,1782.1350411000312,1782.1350411000312,0.009737399988807738,-73.0,53.0,1,0,0,1.5982272999826819,'click_1',1.4699995517730713e-05,1783.7336970000179,0.008575999992899597,,0.002293400000780821,0.002293400000780821,1784.2366355999839,1784.2366355999839,1784.2366355999839,0.01151059998665005,-75.0,49.0,1,0,0,1.5580112000461668,'click_2',1.3999990187585354e-05,0.009081600001081824,,,13,001,control_mbs,25,f,18,1,ale_ila,2024-04-22_17h08.40.556,CPO_EEG,2022.2.1,99.82719910415807,
stimoli/01.full/M03-Disgust-Face Forward.mp4,disgusted,full,maschio,4,6,720,576,40,,,,,,,,,,,,,,,,,1,0,1,0,,,,,,,,,0,42,42,39,,,0.13957369996933267,1787.43308420002,0.14692239998839796,0.0008173999958671629,0.0008173999958671629,1793.3910342000308,1793.3910342000308,0.009444000024814159,-28.0,135.0,1,0,0,1.8497142000123858,'click_1',1.4699995517730713e-05,1795.241941699991,0.009012800001073629,,0.002695099974516779,0.002695099974516779,1795.744813300029,1795.744813300029,1795.744813300029,0.011900599987711757,-34.0,130.0,1,0,0,1.3971695000072941,'click_2',1.4299992471933365e-05,0.008917499973904341,,,13,001,control_mbs,25,f,18,1,ale_ila,2024-04-22_17h08.40.556,CPO_EEG,2022.2.1,99.82719910415807,
stimoli/02.subtle/JF2_Disgust.mp4,disgusted,subtle,femmina,6,10,1646,926,10,,,,,,,,,,,,,,,,,1,0,1,0,,,,,,,,,0,43,43,9,,,0.1396054999786429,1798.780613799987,0.14708209998207167,0.0006864000461064279,0.0006864000461064279,1809.130230300012,1809.130230300012,0.009758100030012429,-34.0,-147.0,1,0,0,1.7291510000359267,'click_1',1.5099998563528061e-05,1810.8599012999912,0.008816600020509213,,0.00251140003092587,0.00251140003092587,1811.3628798000282,1811.3628798000282,1811.3628798000282,0.01179230003617704,-28.0,-132.0,1,0,0,2.0307812000392005,'click_2',1.4800054486840963e-05,0.009066800004802644,,,13,001,control_mbs,25,f,18,1,ale_ila,2024-04-22_17h08.40.556,CPO_EEG,2022.2.1,99.82719910415807,
stimoli/01.full/F01-Joy-Face Forward.mp4,happy,full,femmina,1,6,720,576,41,,,,,,,,,,,,,,,,,1,0,1,0,,,,,,,,,0,44,44,40,,,0.13548640004592016,1815.0280496000196,0.14287840004544705,0.0008591999649070203,0.0008591999649070203,1820.9785865999875,1820.9785865999875,0.00970139994751662,117.0,72.0,1,0,0,1.4675965000060387,'click_1',1.780001912266016e-05,1822.4468152000336,0.008694800024386495,,0.0021394999930635095,0.0021394999930635095,1822.9495507000247,1822.9495507000247,1822.9495507000247,0.01142619998427108,0.0,0.0,1,0,0,0.4218078999547288,'click_2',1.3899989426136017e-05,0.008877400017809123,,,13,001,control_mbs,25,f,18,1,ale_ila,2024-04-22_17h08.40.556,CPO_EEG,2022.2.1,99.82719910415807,
stimoli/02.subtle/JM1_Happiness.mp4,happy,subtle,maschio,7,10,1646,926,15,,,,,,,,,,,,,,,,,1,0,1,0,,,,,,,,,0,45,45,14,,,0.1372813999769278,1825.0075983999996,0.1446507999789901,0.0008123000152409077,0.0008123000152409077,1835.358955600008,1835.358955600008,0.009660699986852705,121.0,87.0,1,0,0,1.5072307000518776,'click_1',1.4699995517730713e-05,1836.8671709999908,0.009070999978575855,,0.0028636999777518213,0.0028636999777518213,1837.3701400000136,1837.3701400000136,1837.3701400000136,0.012056799954734743,122.0,95.0,1,0,0,1.1261923999991268,'click_2',2.1099986042827368e-05,0.009582499973475933,,,13,001,control_mbs,25,f,18,1,ale_ila,2024-04-22_17h08.40.556,CPO_EEG,2022.2.1,99.82719910415807,
stimoli/01.full/F03-Neutral-Face Forward.mp4,neutral,full,femmina,2,6,720,576,54,,,,,,,,,,,,,,,,,1,0,1,0,,,,,,,,,0,46,46,53,,,0.13602510001510382,1840.131535099994,0.14339049998670816,0.0007637999951839447,0.0007637999951839447,1846.0824532000115,1846.0824532000115,0.009767299983650446,0.0,0.0,1,0,0,1.0547866999986582,'click_1',1.550000160932541e-05,1847.138008799986,0.008991500013507903,,0.0026492999750189483,0.0026492999750189483,1847.641062700015,1847.641062700015,1847.641062700015,0.012061199988238513,0.0,0.0,1,0,0,0.24076449999120086,'click_2',1.4499993994832039e-05,0.008914399950299412,,,13,001,control_mbs,25,f,18,1,ale_ila,2024-04-22_17h08.40.556,CPO_EEG,2022.2.1,99.82719910415807,
stimoli/01.full/M03-Fear-Face Forward.mp4,fear,full,maschio,4,6,720,576,32,,,,,,,,,,,,,,,,,1,0,1,0,,,,,,,,,0,47,47,31,,,0.13686499994946644,1849.5172988999984,0.14414119999855757,0.000659200013615191,0.000659200013615191,1855.466741500015,1855.466741500015,0.009886600018944591,-67.0,-126.0,1,0,0,2.010522700031288,'click_1',1.5400000847876072e-05,1857.4778190000216,0.008983999956399202,,0.002271799952723086,0.002271799952723086,1857.9805348000373,1857.9805348000373,1857.9805348000373,0.011724199983291328,-99.0,-65.0,1,0,0,1.4481887000147253,'click_2',1.4999997802078724e-05,0.008841800037771463,,,13,001,control_mbs,25,f,18,1,ale_ila,2024-04-22_17h08.40.556,CPO_EEG,2022.2.1,99.82719910415807,
stimoli/01.full/M02-Disgust-Face Forward.mp4,disgusted,full,maschio,3,6,720,576,39,,,,,,,,,,,,,,,,,1,0,1,0,,,,,,,,,0,48,48,38,,,0.13657380000222474,1861.0642982000136,0.14413380000041798,0.0008057000231929123,0.0008057000231929123,1867.0125364999985,1867.0125364999985,0.009696300025098026,-85.0,64.0,1,0,0,3.458789700001944,'click_1',1.4499993994832039e-05,1870.472077500017,0.008836799999698997,,0.0027171999681741,0.0027171999681741,1870.9750752000255,1870.9750752000255,1870.9750752000255,0.011861899984069169,-82.0,59.0,1,0,0,1.4073287000064738,'click_2',1.4199991710484028e-05,0.00870139995822683,,,13,001,control_mbs,25,f,18,1,ale_ila,2024-04-22_17h08.40.556,CPO_EEG,2022.2.1,99.82719910415807,
stimoli/01.full/M02-Sadness-Face Forward.mp4,sad,full,maschio,3,6,720,576,47,,,,,,,,,,,,,,,,,1,0,1,0,,,,,,,,,0,49,49,46,,,0.13510559999849647,1874.016533899994,0.14244899997720495,0.0006694999756291509,0.0006694999756291509,1879.6048031999962,1879.6048031999962,0.009755900013260543,-22.0,-141.0,1,0,0,2.2218241000082344,'click_1',1.4499993994832039e-05,1881.8274994000094,0.009155799984000623,,0.0024673999869264662,0.0024673999869264662,1882.3300607000128,1882.3300607000128,1882.3300607000128,0.011764299997594208,2.0,1.0,1,0,0,0.35153929999796674,'click_2',1.8499966245144606e-05,0.008811599982436746,,,13,001,control_mbs,25,f,18,1,ale_ila,2024-04-22_17h08.40.556,CPO_EEG,2022.2.1,99.82719910415807,
stimoli/02.subtle/JF1_Disgust.mp4,disgusted,subtle,femmina,5,10,1646,926,9,,,,,,,,,,,,,,,,,1,0,1,0,,,,,,,,,0,50,50,8,,,0.1399107999750413,1884.3206514000194,0.14750069996807724,0.000901099992915988,0.000901099992915988,1895.07267590001,1895.07267590001,0.009822399995755404,-93.0,147.0,1,0,0,1.8799480000161566,'click_1',1.4699995517730713e-05,1896.9533089000033,0.008844600000884384,,0.002196099958382547,0.002196099958382547,1897.456031800015,1897.456031800015,1897.456031800015,0.011541999992914498,-132.0,91.0,1,0,0,1.287197900004685,'click_2',1.4499993994832039e-05,0.008740499964915216,,,13,001,control_mbs,25,f,18,1,ale_ila,2024-04-22_17h08.40.556,CPO_EEG,2022.2.1,99.82719910415807,
stimoli/01.full/F01-Sadness-Face Forward.mp4,sad,full,femmina,1,6,720,576,45,,,,,,,,,,,,,,,,,1,0,1,0,,,,,,,,,0,51,51,44,,,0.13489849999314174,1900.377339700004,0.14256399997975677,0.0007849999819882214,0.0007849999819882214,1906.3270357000292,1906.3270357000292,0.010681400017347187,-26.0,-133.0,1,0,0,1.728845799982082,'click_1',2.039998071268201e-05,1908.0555618000217,0.008811499981675297,,0.0024148999946191907,0.0024148999946191907,1908.5584168999922,1908.5584168999922,1908.5584168999922,0.01164539996534586,-25.0,-128.0,1,0,0,2.231764199968893,'click_2',1.4699995517730713e-05,0.008878699969500303,,,13,001,control_mbs,25,f,18,1,ale_ila,2024-04-22_17h08.40.556,CPO_EEG,2022.2.1,99.82719910415807,
stimoli/02.subtle/JM1_Anger.mp4,angry,subtle,maschio,7,10,1646,926,7,,,,,,,,,,,,,,,,,1,0,1,0,,,,,,,,,0,52,52,6,,,0.1370677999802865,1912.4259621000383,0.14424399996642023,0.0007141000241972506,0.0007141000241972506,1922.7792346000206,1922.7792346000206,0.009702100011054426,-25.0,174.0,1,0,0,2.0910817999974824,'click_1',1.5300000086426735e-05,1924.8709076000378,0.008716700016520917,,0.0021386999869719148,0.0021386999869719148,1925.3736685999902,1925.3736685999902,1925.3736685999902,0.011499100015498698,-34.0,175.0,1,0,0,1.4779105999623425,'click_2',2.0200037397444248e-05,0.008770500018727034,,,13,001,control_mbs,25,f,18,1,ale_ila,2024-04-22_17h08.40.556,CPO_EEG,2022.2.1,99.82719910415807,
stimoli/02.subtle/JM2_Neutral.mp4,neutral,subtle,maschio,8,10,1646,926,28,,,,,,,,,,,,,,,,,1,0,1,0,,,,,,,,,0,53,53,27,,,0.13682960002915934,1928.48733730003,0.1442782999947667,0.0006985000218264759,0.0006985000218264759,1939.40257070004,1939.40257070004,0.009797200036700815,0.0,0.0,1,0,0,0.5320710000232793,'click_1',1.6400008462369442e-05,1939.9354461000185,0.009091600019019097,,0.002593300014268607,0.002593300014268607,1940.4383337000036,1940.4383337000036,1940.4383337000036,0.011964300007093698,0.0,0.0,1,0,0,0.3012555000022985,'click_2',1.6499951016157866e-05,0.008905099995899945,,,13,001,control_mbs,25,f,18,1,ale_ila,2024-04-22_17h08.40.556,CPO_EEG,2022.2.1,99.82719910415807,
stimoli/02.subtle/JF1_Happiness.mp4,happy,subtle,femmina,5,10,1646,926,13,,,,,,,,,,,,,,,,,1,0,1,0,,,,,,,,,0,54,54,12,,,0.1399171999655664,1942.3784481000039,0.1473021999699995,0.0006286000134423375,0.0006286000134423375,1953.1301257000305,1953.1301257000305,0.009790400043129921,78.0,112.0,1,0,0,1.417561599984765,'click_1',1.5700003132224083e-05,1954.5483034999925,0.00888209999538958,,0.002390699984971434,0.002390699984971434,1955.051054599986,1955.051054599986,1955.051054599986,0.011643300007563084,98.0,79.0,1,0,0,1.6085858999867924,'click_2',1.4499993994832039e-05,0.008814300002995878,,,13,001,control_mbs,25,f,18,1,ale_ila,2024-04-22_17h08.40.556,CPO_EEG,2022.2.1,99.82719910415807,
stimoli/01.full/F03-Joy-Face Forward.mp4,happy,full,femmina,2,6,720,576,42,,,,,,,,,,,,,,,,,1,0,1,0,,,,,,,,,0,55,55,41,,,0.13486220000777394,1958.2933772000251,0.14218790002632886,0.0006897999555803835,0.0006897999555803835,1964.2439625000115,1964.2439625000115,0.009917499963194132,123.0,76.0,1,0,0,1.3670530000235885,'click_1',1.5400000847876072e-05,1965.6113511000294,0.008748199965339154,,0.0021229999838396907,0.0021229999838396907,1966.1139920999995,1966.1139920999995,1966.1139920999995,0.011377799964975566,114.0,86.0,1,0,0,1.176394599955529,'click_2',1.4700053725391626e-05,0.00870300002861768,,,13,001,control_mbs,25,f,18,1,ale_ila,2024-04-22_17h08.40.556,CPO_EEG,2022.2.1,99.82719910415807,
,,,,,,,,,,,,,,,,,,,,,,,,,1,0,1,0,,,,,,,,,,,,,,,,,,,,,,,,,,,,,,,,,,,,,,,,,,,,,,,,,,,13,001,control_mbs,25,f,18,1,ale_ila,2024-04-22_17h08.40.556,CPO_EEG,2022.2.1,99.82719910415807,
