file,file_emotion,file_emotion_level,file_gender,file_id,file_duration,size_w,size_h,trigger,loop_practice_full.thisRepN,loop_practice_full.thisTrialN,loop_practice_full.thisN,loop_practice_full.thisIndex,loop_istr_practice.thisRepN,loop_istr_practice.thisTrialN,loop_istr_practice.thisN,loop_istr_practice.thisIndex,tuto.thisRepN,tuto.thisTrialN,tuto.thisN,tuto.thisIndex,loop_practice.thisRepN,loop_practice.thisTrialN,loop_practice.thisN,loop_practice.thisIndex,exp_blocks.thisRepN,exp_blocks.thisTrialN,exp_blocks.thisN,exp_blocks.thisIndex,istr_1.thisRepN,istr_1.thisTrialN,istr_1.thisN,istr_1.thisIndex,istr_2.thisRepN,istr_2.thisTrialN,istr_2.thisN,istr_2.thisIndex,exp.thisRepN,exp.thisTrialN,exp.thisN,exp.thisIndex,img_tutorial.started,key_resp.started,p_port.started,mov_target.started,p_port.stopped,p_port_2.started,primary.started,img_primary_wheel.started,click_1.started,p_port_2.stopped,primary.x,primary.y,primary.leftButton,primary.midButton,primary.rightButton,primary.time,primary.clicked_name,p_port_4.started,txt_iwi.started,p_port_4.stopped,txt_iwi.stopped,p_port_3.started,secondary.started,img_secondary_wheel.started,click_2.started,primary_pos.started,p_port_3.stopped,secondary.x,secondary.y,secondary.leftButton,secondary.midButton,secondary.rightButton,secondary.time,secondary.clicked_name,p_port_5.started,p_port_5.stopped,kb_end_practice.keys,kb_end_practice.rt,participant,session,group,age,sex,education,practice,experimenter,date,expName,psychopyVersion,frameRate,
stimoli/03.practice/F04-Surprise-Face Forward.mp4,surprise,full,femmina,9,6,700,700,61,0,0,0,0,,,,,,,,,0,0,0,4,,,,,,,,,,,,,,,,,211.71321960003115,211.71321960003115,0.5663188999751583,217.59599659999367,0.5743214000249282,0.0008108000038191676,0.0008108000038191676,223.7154639000073,223.7154639000073,0.009537199977785349,28.0,-142.0,1,0,0,6.549118499970064,'click_1',1.8700025975704193e-05,230.261141300085,0.004064099979586899,230.7660796000855,0.00020810007117688656,0.00020810007117688656,230.7660796000855,230.7660796000855,230.7660796000855,0.00904380006249994,61.0,-78.0,1,0,0,11.78542450000532,'click_2',1.5300000086426735e-05,0.008705899934284389,,,14,001,control,22,m,16,1,ale_ila,2024-04-05_10h15.59.193,CPO_EEG,2022.2.1,99.62590480161536,
stimoli/03.practice/F04-Disgust-Face Forward.mp4,disgust,full,femmina,9,6,700,700,58,0,0,0,0,,,,,,,,,0,1,1,1,,,,,,,,,,,,,,,,,,,0.14118469995446503,244.19221800006926,0.1484724999172613,0.0006730000022798777,0.0006730000022798777,250.14828810002655,250.14828810002655,0.009796799975447357,-178.0,113.0,1,0,0,3.2681763001019135,'click_1',1.4099990949034691e-05,253.41691999998875,0.008802699972875416,,0.0024124999763444066,0.0024124999763444066,253.919810899999,253.919810899999,253.919810899999,0.01172079995740205,-55.0,75.0,1,0,0,8.899935800000094,'click_2',1.309998333454132e-05,0.00898150005377829,,,14,001,control,22,m,16,1,ale_ila,2024-04-05_10h15.59.193,CPO_EEG,2022.2.1,99.62590480161536,
stimoli/03.practice/F04-Anger-Face Forward.mp4,anger,full,femmina,9,6,700,700,57,0,0,0,0,,,,,,,,,0,2,2,0,,,,,,,,,,,,,,,,,,,0.1413755000103265,264.460066700005,0.14875679998658597,0.0007741000736132264,0.0007741000736132264,270.41585099999793,270.41585099999793,0.009744400042109191,-27.0,126.0,1,0,0,4.795802199980244,'click_1',1.379998866468668e-05,275.2124470000854,0.00889099994674325,,0.002265700022689998,0.002265700022689998,275.7150628999807,275.7150628999807,275.7150628999807,0.011543500004336238,-20.0,129.0,1,0,0,7.581607799977064,'click_2',1.7400016076862812e-05,0.008923299959860742,,,14,001,control,22,m,16,1,ale_ila,2024-04-05_10h15.59.193,CPO_EEG,2022.2.1,99.62590480161536,
stimoli/03.practice/F04-Joy-Face Forward.mp4,joy,full,femmina,9,6,700,700,59,0,0,0,0,,,,,,,,,0,3,3,2,,,,,,,,,,,,,,,,,,,0.1454308999236673,284.940899200039,0.1526865999912843,0.0008048999588936567,0.0008048999588936567,290.8920606999891,290.8920606999891,0.009798099985346198,207.0,-52.0,1,0,0,2.965966199990362,'click_1',1.4299992471933365e-05,293.8586278000148,0.008758299984037876,,0.0022173000033944845,0.0022173000033944845,294.3613140999805,294.3613140999805,294.3613140999805,0.01150180003605783,124.0,74.0,1,0,0,4.56534059997648,'click_2',1.3899989426136017e-05,0.008864799980074167,,,14,001,control,22,m,16,1,ale_ila,2024-04-05_10h15.59.193,CPO_EEG,2022.2.1,99.62590480161536,
stimoli/03.practice/F04-Neutral-Face Forward.mp4,neutral,full,femmina,9,6,700,700,62,0,0,0,0,,,,,,,,,0,4,4,5,,,,,,,,,,,,,,,,,,,0.14622770005371422,300.57176740001887,0.15353090001735836,0.0007631001062691212,0.0007631001062691212,306.5225195999956,306.5225195999956,0.009690900100395083,0.0,0.0,1,0,0,9.05872970004566,'click_1',1.300009898841381e-05,315.5821836000541,0.009093500091694295,,0.002565900096669793,0.002565900096669793,316.08510610007215,316.08510610007215,316.08510610007215,0.01199820009060204,0.0,0.0,1,0,0,1.0854123000754043,'click_2',1.4299992471933365e-05,0.009208599920384586,,,14,001,control,22,m,16,1,ale_ila,2024-04-05_10h15.59.193,CPO_EEG,2022.2.1,99.62590480161536,
stimoli/03.practice/F04-Sadness-Face Forward.mp4,sadness,full,femmina,9,6,700,700,60,0,0,0,0,,,,,,,,,0,5,5,3,,,,,,,,,,,,,,,,,,,0.14465829997789115,318.81376460008323,0.15186419989913702,0.0006899000145494938,0.0006899000145494938,324.7658261000179,324.7658261000179,0.009752199985086918,-37.0,-192.0,1,0,0,4.4143119000364095,'click_1',1.5700003132224083e-05,329.18053680006415,0.008582600043155253,,0.0021129000233486295,0.0021129000233486295,329.68325160001405,329.68325160001405,329.68325160001405,0.011337600066326559,-37.0,-199.0,1,0,0,3.3177777000237256,'click_2',1.3299984857439995e-05,0.00899330002721399,,,14,001,control,22,m,16,1,ale_ila,2024-04-05_10h15.59.193,CPO_EEG,2022.2.1,99.62590480161536,
,,,,,,,,,0,0,0,0,,,,,,,,,,,,,,,,,,,,,,,,,,,,,,,,,,,,,,,,,,,,,,,,,,,,,,,,,,,,,,,,,n,66.94356769998558,14,001,control,22,m,16,1,ale_ila,2024-04-05_10h15.59.193,CPO_EEG,2022.2.1,99.62590480161536,
,,,,,,,,,,,,,,,,,,,,,,,,,0,0,0,0,0,0,0,0,,,,,,,,,,,,,,,,,,,,,,,,,,,,,,,,,,,,,,,,,,,,,,,14,001,control,22,m,16,1,ale_ila,2024-04-05_10h15.59.193,CPO_EEG,2022.2.1,99.62590480161536,
stimoli/01.full/M03-Sadness-Face Forward.mp4,sad,full,maschio,4,6,720,576,48,,,,,,,,,,,,,,,,,0,0,0,0,,,,,,,,,0,0,0,47,,,0.16679579997435212,409.75761369999964,0.174194399965927,0.000685199978761375,0.000685199978761375,415.71183829999063,415.71183829999063,0.00974879995919764,-45.0,-191.0,1,0,0,2.040810100035742,'click_1',1.4399993233382702e-05,417.7531415000558,0.008384300046600401,,0.0021647000685334206,0.0021647000685334206,418.25610760005657,418.25610760005657,418.25610760005657,0.011404299992136657,-56.0,-90.0,1,0,0,6.899544100044295,'click_2',1.4199991710484028e-05,0.007072499953210354,,,14,001,control,22,m,16,1,ale_ila,2024-04-05_10h15.59.193,CPO_EEG,2022.2.1,99.62590480161536,
stimoli/02.subtle/JF2_Sadness.mp4,sad,subtle,femmina,6,8,1646,926,18,,,,,,,,,,,,,,,,,0,0,0,0,,,,,,,,,0,1,1,17,,,0.15136789996176958,426.8062457999913,0.15864569996483624,0.0008465000428259373,0.0008465000428259373,435.1238484000787,435.1238484000787,0.009712800034321845,-29.0,-196.0,1,0,0,6.195140699972399,'click_1',1.3499986380338669e-05,441.3196398,0.008705100044608116,,0.0022977000335231423,0.0022977000335231423,441.8224202999845,441.8224202999845,441.8224202999845,0.011513800011016428,-28.0,-191.0,1,0,0,7.57253020000644,'click_2',1.3299984857439995e-05,0.008705099928192794,,,14,001,control,22,m,16,1,ale_ila,2024-04-05_10h15.59.193,CPO_EEG,2022.2.1,99.62590480161536,
stimoli/01.full/M03-Fear-Face Forward.mp4,fear,full,maschio,4,6,720,576,32,,,,,,,,,,,,,,,,,0,0,0,0,,,,,,,,,0,2,2,31,,,0.14594029996078461,451.03982429997995,0.15328859991859645,0.0006788000464439392,0.0006788000464439392,456.9902743999846,456.9902743999846,0.009930899948813021,25.0,-150.0,1,0,0,15.02282740001101,'click_1',1.2899981811642647e-05,472.0136421000352,0.008993900031782687,,0.002650100039318204,0.002650100039318204,472.5165721999947,472.5165721999947,472.5165721999947,0.011975500034168363,36.0,-141.0,1,0,0,1.7395009000319988,'click_2',1.2999982573091984e-05,0.008738500066101551,,,14,001,control,22,m,16,1,ale_ila,2024-04-05_10h15.59.193,CPO_EEG,2022.2.1,99.62590480161536,
stimoli/01.full/M02-Fear-Face Forward.mp4,fear,full,maschio,3,6,720,576,31,,,,,,,,,,,,,,,,,0,0,0,0,,,,,,,,,0,3,3,30,,,0.13970129995141178,475.89462140004616,0.1470064000459388,0.0006664000684395432,0.0006664000684395432,481.85186280007474,481.85186280007474,0.009977700072340667,-119.0,-172.0,1,0,0,6.0331777998944744,'click_1',1.2999982573091984e-05,487.88558130001184,0.009041799930855632,,0.0023360999766737223,0.0023360999766737223,488.3880452000303,488.3880452000303,488.3880452000303,0.011519499938003719,27.0,-98.0,1,0,0,1.709534400026314,'click_2',1.2399978004395962e-05,0.008635599981062114,,,14,001,control,22,m,16,1,ale_ila,2024-04-05_10h15.59.193,CPO_EEG,2022.2.1,99.62590480161536,
stimoli/01.full/F03-Neutral-Face Forward.mp4,neutral,full,femmina,2,6,720,576,54,,,,,,,,,,,,,,,,,0,0,0,0,,,,,,,,,0,4,4,53,,,0.1404888000106439,491.7371843000874,0.14794419996906072,0.0007502998923882842,0.0007502998923882842,497.6945443000877,497.6945443000877,0.009774899925105274,0.0,0.0,1,0,0,3.267652199952863,'click_1',1.3399985618889332e-05,500.9628313999856,0.008795500034466386,,0.0020939999958500266,0.0020939999958500266,501.46548530005384,501.46548530005384,501.46548530005384,0.011473900056444108,0.0,0.0,1,0,0,1.2165098999394104,'click_2',1.3299984857439995e-05,0.008848499972373247,,,14,001,control,22,m,16,1,ale_ila,2024-04-05_10h15.59.193,CPO_EEG,2022.2.1,99.62590480161536,
stimoli/01.full/F03-Anger-Face Forward.mp4,angry,full,femmina,2,6,720,576,34,,,,,,,,,,,,,,,,,0,0,0,0,,,,,,,,,0,5,5,33,,,0.14582519989926368,504.32654949999414,0.1530465999385342,0.0005910999607294798,0.0005910999607294798,510.27818160003517,510.27818160003517,0.00992240000050515,-41.0,189.0,1,0,0,3.5001582000404596,'click_1',1.7300015315413475e-05,513.7777606999734,0.007970400038175285,,0.001339699956588447,0.001339699956588447,514.2803538000444,514.2803538000444,514.2803538000444,0.010606299969367683,-37.0,186.0,1,0,0,1.7998681999742985,'click_2',1.379998866468668e-05,0.008787199971266091,,,14,001,control,22,m,16,1,ale_ila,2024-04-05_10h15.59.193,CPO_EEG,2022.2.1,99.62590480161536,
stimoli/01.full/M03-Anger-Face Forward.mp4,angry,full,maschio,4,6,720,576,36,,,,,,,,,,,,,,,,,0,0,0,0,,,,,,,,,0,6,6,35,,,0.14727019995916635,517.7264357000822,0.154614899889566,0.0006776000373065472,0.0006776000373065472,523.67523240007,523.67523240007,0.009807000053115189,-29.0,184.0,1,0,0,3.901242799940519,'click_1',1.3599987141788006e-05,527.5768857999938,0.0087782999034971,,0.0025522999931126833,0.0025522999931126833,528.0799196000444,528.0799196000444,528.0799196000444,0.011834300006739795,-81.0,113.0,1,0,0,1.8499954000581056,'click_2',1.3299984857439995e-05,0.009020199999213219,,,14,001,control,22,m,16,1,ale_ila,2024-04-05_10h15.59.193,CPO_EEG,2022.2.1,99.62590480161536,
stimoli/01.full/F03-Fear-Face Forward.mp4,fear,full,femmina,2,6,720,576,30,,,,,,,,,,,,,,,,,0,0,0,0,,,,,,,,,0,7,7,29,,,0.14672910002991557,531.5755125000142,0.15407669998239726,0.0006660000653937459,0.0006660000653937459,537.5252906000242,537.5252906000242,0.00970160006545484,-125.0,77.0,1,0,0,7.863666099961847,'click_1',1.4499993994832039e-05,545.389911300037,0.009178100037388504,,0.002886999980546534,0.002886999980546534,545.8928134000162,545.8928134000162,545.8928134000162,0.012131100054830313,24.0,-100.0,1,0,0,2.2925746999680996,'click_2',1.309998333454132e-05,0.008757999981753528,,,14,001,control,22,m,16,1,ale_ila,2024-04-05_10h15.59.193,CPO_EEG,2022.2.1,99.62590480161536,
stimoli/02.subtle/JF1_Fear.mp4,fear,subtle,femmina,5,10,1646,926,1,,,,,,,,,,,,,,,,,0,0,0,0,,,,,,,,,0,8,8,0,,,0.15007579990196973,549.8343104000669,0.15733289998024702,0.0006801999406889081,0.0006801999406889081,560.5873603000073,560.5873603000073,0.00975189998280257,-110.0,-168.0,1,0,0,3.388782700058073,'click_1',1.3800105080008507e-05,563.9769257999724,0.0090618000831455,,0.00250110006891191,0.00250110006891191,564.4796689000214,564.4796689000214,564.4796689000214,0.011774600017815828,-163.0,-110.0,1,0,0,1.1865916999522597,'click_2',1.4499993994832039e-05,0.008718700031749904,,,14,001,control,22,m,16,1,ale_ila,2024-04-05_10h15.59.193,CPO_EEG,2022.2.1,99.62590480161536,
stimoli/02.subtle/JM1_Neutral.mp4,neutral,subtle,maschio,7,10,1646,926,27,,,,,,,,,,,,,,,,,0,0,0,0,,,,,,,,,0,9,9,26,,,0.14749659993685782,567.3126757000573,0.15483150002546608,0.0006802000571042299,0.0006802000571042299,577.6664260000689,577.6664260000689,0.009711200022138655,-141.0,-34.0,1,0,0,7.903475599945523,'click_1',1.3399985618889332e-05,585.570766900084,0.009069199906662107,,0.0025949999690055847,0.0025949999690055847,586.0735275000334,586.0735275000334,586.0735275000334,0.011844899971038103,-80.0,-126.0,1,0,0,1.0053978000069037,'click_2',1.379998866468668e-05,0.008848800091072917,,,14,001,control,22,m,16,1,ale_ila,2024-04-05_10h15.59.193,CPO_EEG,2022.2.1,99.62590480161536,
stimoli/02.subtle/JF1_Neutral.mp4,neutral,subtle,femmina,5,10,1646,926,25,,,,,,,,,,,,,,,,,0,0,0,0,,,,,,,,,0,10,10,24,,,0.17109120008535683,588.7487692000577,0.17832480010110885,0.0008267000084742904,0.0008267000084742904,599.503797100042,599.503797100042,0.009904799982905388,0.0,0.0,1,0,0,4.67481230001431,'click_1',1.3999990187585354e-05,604.1793353999965,0.008977900026366115,,0.0024850000627338886,0.0024850000627338886,604.6823187000118,604.6823187000118,604.6823187000118,0.01197750004939735,0.0,0.0,1,0,0,0.7035123000387102,'click_2',1.3199984095990658e-05,0.009171299985609949,,,14,001,control,22,m,16,1,ale_ila,2024-04-05_10h15.59.193,CPO_EEG,2022.2.1,99.62590480161536,
stimoli/02.subtle/JM1_Anger.mp4,angry,subtle,maschio,7,10,1646,926,7,,,,,,,,,,,,,,,,,0,0,0,0,,,,,,,,,0,11,11,6,,,0.1577672999119386,607.0422405999852,0.16507719992659986,0.0006594000151380897,0.0006594000151380897,617.3962500999914,617.3962500999914,0.00979479996021837,-106.0,-169.0,1,0,0,9.100289299967699,'click_1',1.3699987903237343e-05,626.497045999975,0.00883469998370856,,0.002400800003670156,0.002400800003670156,627.000036100042,627.000036100042,627.000036100042,0.01182909996714443,-179.0,-109.0,1,0,0,1.267136299982667,'click_2',1.3499986380338669e-05,0.00873379991389811,,,14,001,control,22,m,16,1,ale_ila,2024-04-05_10h15.59.193,CPO_EEG,2022.2.1,99.62590480161536,
stimoli/02.subtle/JF2_Neutral.mp4,neutral,subtle,femmina,6,9,1646,926,26,,,,,,,,,,,,,,,,,0,0,0,0,,,,,,,,,0,12,12,25,,,0.16453239996917546,629.9304715000326,0.17197819997090846,0.0006597000174224377,0.0006597000174224377,639.3627927000634,639.3627927000634,0.009810300078243017,-171.0,112.0,1,0,0,7.47184210002888,'click_1',1.3599987141788006e-05,646.8350788999815,0.008819399983622134,,0.002405900042504072,0.002405900042504072,647.3378363000229,647.3378363000229,647.3378363000229,0.011636000010184944,-23.0,140.0,1,0,0,1.5278516000835225,'click_2',1.3599987141788006e-05,0.00909109995700419,,,14,001,control,22,m,16,1,ale_ila,2024-04-05_10h15.59.193,CPO_EEG,2022.2.1,99.62590480161536,
stimoli/01.full/F03-Surprise-Face Forward.mp4,surprised,full,femmina,2,6,720,576,50,,,,,,,,,,,,,,,,,0,0,0,0,,,,,,,,,0,13,13,49,,,0.1418606999795884,650.5065583999967,0.14928200002759695,0.0007790999952703714,0.0007790999952703714,656.4616153000388,656.4616153000388,0.009792600059881806,42.0,-206.0,1,0,0,2.5839236000319943,'click_1',1.6700010746717453e-05,659.046277299989,0.009007000015117228,,0.002572400029748678,0.002572400029748678,659.549085100065,659.549085100065,659.549085100065,0.01179939997382462,59.0,81.0,1,0,0,8.246460600057617,'click_2',1.3699987903237343e-05,0.008759799995459616,,,14,001,control,22,m,16,1,ale_ila,2024-04-05_10h15.59.193,CPO_EEG,2022.2.1,99.62590480161536,
stimoli/01.full/M03-Surprise-Face Forward.mp4,surprised,full,maschio,4,6,720,576,52,,,,,,,,,,,,,,,,,0,0,0,0,,,,,,,,,0,14,14,51,,,0.14698010007850826,669.4414554000832,0.15431200002785772,0.000789299956522882,0.000789299956522882,675.3910117000341,675.3910117000341,0.009702499955892563,38.0,-187.0,1,0,0,6.103832500055432,'click_1',1.3100099749863148e-05,681.4956086999737,0.008881400106474757,,0.002419200027361512,0.002419200027361512,681.9983887000708,681.9983887000708,681.9983887000708,0.011671800049953163,26.0,-179.0,1,0,0,1.8195369000313804,'click_2',1.309998333454132e-05,0.009056900045834482,,,14,001,control,22,m,16,1,ale_ila,2024-04-05_10h15.59.193,CPO_EEG,2022.2.1,99.62590480161536,
stimoli/02.subtle/JM2_Disgust.mp4,disgusted,subtle,maschio,8,10,1646,926,12,,,,,,,,,,,,,,,,,0,0,0,0,,,,,,,,,0,15,15,11,,,0.15042159997392446,685.4670805999776,0.1575767999747768,0.0008210999658331275,0.0008210999658331275,696.0189638000447,696.0189638000447,0.009621999925002456,-163.0,117.0,1,0,0,3.5486766999820247,'click_1',1.3699987903237343e-05,699.5685189000797,0.008896299987100065,,0.002446300000883639,0.002446300000883639,700.0713990000077,700.0713990000077,700.0713990000077,0.011784099973738194,-118.0,168.0,1,0,0,1.6591979999793693,'click_2',1.3200100511312485e-05,0.009045700076967478,,,14,001,control,22,m,16,1,ale_ila,2024-04-05_10h15.59.193,CPO_EEG,2022.2.1,99.62590480161536,
stimoli/02.subtle/JM2_Sadness.mp4,sad,subtle,maschio,8,10,1646,926,20,,,,,,,,,,,,,,,,,0,0,0,0,,,,,,,,,0,16,16,19,,,0.1492494000121951,703.3784542999929,0.15642090002074838,0.0008647999493405223,0.0008647999493405223,713.9312090000603,713.9312090000603,0.009680600021965802,-35.0,-188.0,1,0,0,12.268982099951245,'click_1',1.3400102034211159e-05,726.2013146000681,0.009152700076811016,,0.002550500095821917,0.002550500095821917,726.7039310000837,726.7039310000837,726.7039310000837,0.011776600033044815,-54.0,-90.0,1,0,0,6.314562399988063,'click_2',1.3200100511312485e-05,0.009180900058709085,,,14,001,control,22,m,16,1,ale_ila,2024-04-05_10h15.59.193,CPO_EEG,2022.2.1,99.62590480161536,
stimoli/01.full/M02-Joy-Face Forward.mp4,happy,full,maschio,3,6,720,576,43,,,,,,,,,,,,,,,,,0,0,0,0,,,,,,,,,0,17,17,42,,,0.13945050002075732,734.6568089000648,0.14676130004227161,0.0007098999340087175,0.0007098999340087175,740.6129844000097,740.6129844000097,0.009923100005835295,164.0,105.0,1,0,0,3.5297064000042155,'click_1',1.3399985618889332e-05,744.1431690000463,0.008822300005704165,,0.0024950000224635005,0.0024950000224635005,744.6460665999912,744.6460665999912,744.6460665999912,0.011770499986596406,99.0,-29.0,1,0,0,3.831341900047846,'click_2',1.3699987903237343e-05,0.008703400031663477,,,14,001,control,22,m,16,1,ale_ila,2024-04-05_10h15.59.193,CPO_EEG,2022.2.1,99.62590480161536,
stimoli/02.subtle/JM2_Fear.mp4,fear,subtle,maschio,8,10,1646,926,4,,,,,,,,,,,,,,,,,0,0,0,0,,,,,,,,,0,18,18,3,,,0.14115989999845624,750.1175740000326,0.14845900004729629,0.0007195000071078539,0.0007195000071078539,760.6677670000354,760.6677670000354,0.009719099965877831,-139.0,-33.0,1,0,0,11.575089800055139,'click_1',1.2899981811642647e-05,772.2435308999848,0.008860099944286048,,0.002604600042104721,0.002604600042104721,772.746626200038,772.746626200038,772.746626200038,0.011977100046351552,-81.0,-121.0,1,0,0,1.6993049000157043,'click_2',1.3199984095990658e-05,0.009040000033564866,,,14,001,control,22,m,16,1,ale_ila,2024-04-05_10h15.59.193,CPO_EEG,2022.2.1,99.62590480161536,
stimoli/02.subtle/JF1_Disgust.mp4,disgusted,subtle,femmina,5,10,1646,926,9,,,,,,,,,,,,,,,,,0,0,0,0,,,,,,,,,0,19,19,8,,,0.15001089998986572,776.0947864999762,0.15742439997848123,0.0006797000532969832,0.0006797000532969832,786.8491674000397,786.8491674000397,0.009909800020977855,-164.0,113.0,1,0,0,1.9808430999983102,'click_1',1.309998333454132e-05,788.8303951000562,0.008804599987342954,,0.0025507999816909432,0.0025507999816909432,789.3333829999901,789.3333829999901,789.3333829999901,0.011795699945650995,-91.0,-23.0,1,0,0,8.869538099970669,'click_2',1.650000922381878e-05,0.008275400032289326,,,14,001,control,22,m,16,1,ale_ila,2024-04-05_10h15.59.193,CPO_EEG,2022.2.1,99.62590480161536,
stimoli/02.subtle/JF2_Surprise.mp4,surprised,subtle,femmina,6,10,1646,926,22,,,,,,,,,,,,,,,,,0,0,0,0,,,,,,,,,0,20,20,21,,,0.1425868000369519,799.844371400075,0.14985750010237098,0.0006820999551564455,0.0006820999551564455,810.1929788000416,810.1929788000416,0.009780699969269335,-120.0,164.0,1,0,0,5.128179399995133,'click_1',1.3399985618889332e-05,815.3216142000165,0.008759499993175268,,0.002274799975566566,0.002274799975566566,815.8242920000339,815.8242920000339,815.8242920000339,0.011476899962872267,-111.0,170.0,1,0,0,2.634819700033404,'click_2',1.4199991710484028e-05,0.008818199974484742,,,14,001,control,22,m,16,1,ale_ila,2024-04-05_10h15.59.193,CPO_EEG,2022.2.1,99.62590480161536,
stimoli/02.subtle/JM2_Surprise.mp4,surprised,subtle,maschio,8,10,1646,926,24,,,,,,,,,,,,,,,,,0,0,0,0,,,,,,,,,0,21,21,23,,,0.14253059995826334,820.1003475000616,0.14963639993220568,0.0006806000601500273,0.0006806000601500273,831.0135809000349,831.0135809000349,0.009926200029440224,129.0,-84.0,1,0,0,2.9765787000069395,'click_1',1.3499986380338669e-05,833.9906338000437,0.008895199978724122,,0.002212099963799119,0.002212099963799119,834.4932255999884,834.4932255999884,834.4932255999884,0.011541399988345802,140.0,31.0,1,0,0,2.323116899933666,'click_2',1.2899981811642647e-05,0.008886900031939149,,,14,001,control,22,m,16,1,ale_ila,2024-04-05_10h15.59.193,CPO_EEG,2022.2.1,99.62590480161536,
stimoli/02.subtle/JM2_Happiness.mp4,happy,subtle,maschio,8,10,1646,926,16,,,,,,,,,,,,,,,,,0,0,0,0,,,,,,,,,0,22,22,15,,,0.14242489996831864,838.4574859000277,0.14964790001977235,0.0007225999142974615,0.0007225999142974615,849.0090257000411,849.0090257000411,0.009702099952846766,118.0,-91.0,1,0,0,5.248974999994971,'click_1',1.4199991710484028e-05,854.2586844000034,0.008835699991323054,,0.0024406000738963485,0.0024406000738963485,854.7613126999931,854.7613126999931,854.7613126999931,0.011495199985802174,73.0,-124.0,1,0,0,0.8644868000410497,'click_2',1.2899981811642647e-05,0.008814399945549667,,,14,001,control,22,m,16,1,ale_ila,2024-04-05_10h15.59.193,CPO_EEG,2022.2.1,99.62590480161536,
stimoli/02.subtle/JF1_Surprise.mp4,surprised,subtle,femmina,5,10,1646,926,21,,,,,,,,,,,,,,,,,0,0,0,0,,,,,,,,,0,23,23,20,,,0.14557860000059009,857.270459500025,0.1529119999613613,0.0008472000481560826,0.0008472000481560826,868.0277471999871,868.0277471999871,0.009697400033473969,121.0,-179.0,1,0,0,2.9259544999804348,'click_1',1.2899981811642647e-05,870.9546858000103,0.009041299927048385,,0.002562499954365194,0.002562499954365194,871.4574559000321,871.4574559000321,871.4574559000321,0.011830799980089068,31.0,-150.0,1,0,0,2.9056133000412956,'click_2',1.3800105080008507e-05,0.008975800010375679,,,14,001,control,22,m,16,1,ale_ila,2024-04-05_10h15.59.193,CPO_EEG,2022.2.1,99.62590480161536,
stimoli/01.full/M02-Anger-Face Forward.mp4,angry,full,maschio,3,6,720,576,35,,,,,,,,,,,,,,,,,0,0,0,0,,,,,,,,,0,24,24,34,,,0.14706250000745058,876.0088952999795,0.15431300003547221,0.0006659999489784241,0.0006659999489784241,881.9588753000135,881.9588753000135,0.009839599952101707,-30.0,132.0,1,0,0,4.30419549997896,'click_1',1.680001150816679e-05,886.2635345000308,0.008862699964083731,,0.0024010000051930547,0.0024010000051930547,886.7663617000217,886.7663617000217,886.7663617000217,0.011728600016795099,-21.0,147.0,1,0,0,2.051182599971071,'click_2',1.3299984857439995e-05,0.008884000009857118,,,14,001,control,22,m,16,1,ale_ila,2024-04-05_10h15.59.193,CPO_EEG,2022.2.1,99.62590480161536,
stimoli/01.full/F01-Fear-Face Forward.mp4,fear,full,femmina,1,6,720,576,29,,,,,,,,,,,,,,,,,0,0,0,0,,,,,,,,,0,25,25,28,,,0.1460419000359252,890.4624266000465,0.15338200004771352,0.0006662000669166446,0.0006662000669166446,896.4126496000681,896.4126496000681,0.009747800067998469,-96.0,-177.0,1,0,0,1.457945300033316,'click_1',1.3400102034211159e-05,897.8711839000462,0.00884090003091842,,0.0023867000127211213,0.0023867000127211213,898.3739012000151,898.3739012000151,898.3739012000151,0.011617999989539385,-108.0,-172.0,1,0,0,1.3873066999949515,'click_2',1.309998333454132e-05,0.009150599944405258,,,14,001,control,22,m,16,1,ale_ila,2024-04-05_10h15.59.193,CPO_EEG,2022.2.1,99.62590480161536,
stimoli/02.subtle/JF2_Fear.mp4,fear,subtle,femmina,6,10,1646,926,2,,,,,,,,,,,,,,,,,0,0,0,0,,,,,,,,,0,26,26,1,,,0.1516012999927625,901.4116586999735,0.15885569993406534,0.0011320000048726797,0.0011320000048726797,911.7637280999916,911.7637280999916,0.00942450005095452,-131.0,-83.0,1,0,0,1.7587181000271812,'click_1',1.3599987141788006e-05,913.5239556999877,0.009034399990923703,,0.0024707000702619553,0.0024707000702619553,914.0265905000269,914.0265905000269,914.0265905000269,0.011665700003504753,-56.0,-89.0,1,0,0,2.4133182000368834,'click_2',1.3499986380338669e-05,0.008945800014771521,,,14,001,control,22,m,16,1,ale_ila,2024-04-05_10h15.59.193,CPO_EEG,2022.2.1,99.62590480161536,
stimoli/02.subtle/JM2_Neutral.mp4,neutral,subtle,maschio,8,10,1646,926,28,,,,,,,,,,,,,,,,,0,0,0,0,,,,,,,,,0,27,27,27,,,0.1493696999968961,918.0880465999944,0.15655300009530038,0.0007318999851122499,0.0007318999851122499,929.0034850999946,929.0034850999946,0.00987629999872297,0.0,0.0,1,0,0,0.5020016999915242,'click_1',1.3399985618889332e-05,929.5062363999896,0.009100600029341877,,0.002652199938893318,0.002652199938893318,930.0090702000307,930.0090702000307,930.0090702000307,0.011967399972490966,0.0,0.0,1,0,0,0.6230153000215068,'click_2',1.3299984857439995e-05,0.008957599988207221,,,14,001,control,22,m,16,1,ale_ila,2024-04-05_10h15.59.193,CPO_EEG,2022.2.1,99.62590480161536,
stimoli/01.full/F01-Sadness-Face Forward.mp4,sad,full,femmina,1,6,720,576,45,,,,,,,,,,,,,,,,,0,0,0,0,,,,,,,,,0,28,28,44,,,0.13869319995865226,932.2695078999968,0.14590390003286302,0.0007845000363886356,0.0007845000363886356,938.2265882000793,938.2265882000793,0.009671000065281987,-26.0,-152.0,1,0,0,4.2029019999317825,'click_1',1.370010431855917e-05,942.4303655000404,0.008921600063331425,,0.0023888000287115574,0.0023888000287115574,942.9330873000436,942.9330873000436,942.9330873000436,0.011691300082020462,-22.0,-142.0,1,0,0,1.2364718000171706,'click_2',1.3299984857439995e-05,0.008844300056807697,,,14,001,control,22,m,16,1,ale_ila,2024-04-05_10h15.59.193,CPO_EEG,2022.2.1,99.62590480161536,
stimoli/02.subtle/JF2_Anger.mp4,angry,subtle,femmina,6,9,1646,926,6,,,,,,,,,,,,,,,,,0,0,0,0,,,,,,,,,0,29,29,5,,,0.14404320006724447,945.8125204000389,0.15148650004994124,0.0006702999817207456,0.0006702999817207456,955.2453922000714,955.2453922000714,0.009817900019697845,-40.0,194.0,1,0,0,2.4939954000292346,'click_1',1.279998105019331e-05,957.7398413000628,0.008779200026765466,,0.0025516999885439873,0.0025516999885439873,958.2428062000545,958.2428062000545,958.2428062000545,0.011742100003175437,0.0,0.0,1,0,0,0.4419501000083983,'click_2',1.309998333454132e-05,0.008899900014512241,,,14,001,control,22,m,16,1,ale_ila,2024-04-05_10h15.59.193,CPO_EEG,2022.2.1,99.62590480161536,
stimoli/01.full/M03-Joy-Face Forward.mp4,happy,full,maschio,4,6,720,576,44,,,,,,,,,,,,,,,,,0,0,0,0,,,,,,,,,0,30,30,43,,,0.14040719997137785,960.3241663000081,0.1478245999896899,0.0007958000060170889,0.0007958000060170889,966.2811698999722,966.2811698999722,0.009716700064018369,166.0,113.0,1,0,0,3.4989845999516547,'click_1',1.2999982573091984e-05,969.7808414000319,0.008823800017125905,,0.002186099998652935,0.002186099998652935,970.2837070000824,970.2837070000824,970.2837070000824,0.01170630007982254,134.0,31.0,1,0,0,1.2566577999386936,'click_2',1.3399985618889332e-05,0.009235000004991889,,,14,001,control,22,m,16,1,ale_ila,2024-04-05_10h15.59.193,CPO_EEG,2022.2.1,99.62590480161536,
stimoli/01.full/F01-Anger-Face Forward.mp4,angry,full,femmina,1,6,720,576,33,,,,,,,,,,,,,,,,,0,0,0,0,,,,,,,,,0,31,31,32,,,0.13976499997079372,973.1788301999914,0.14718039997387677,0.0008084999863058329,0.0008084999863058329,979.1352582999971,979.1352582999971,0.009762699948623776,-37.0,149.0,1,0,0,3.4785476000979543,'click_1',1.3499986380338669e-05,982.6144465000834,0.008826600038446486,,0.0024483000161126256,0.0024483000161126256,983.1173334000632,983.1173334000632,983.1173334000632,0.011741299997083843,-27.0,139.0,1,0,0,1.7995906999567524,'click_2',1.3199984095990658e-05,0.008835199987515807,,,14,001,control,22,m,16,1,ale_ila,2024-04-05_10h15.59.193,CPO_EEG,2022.2.1,99.62590480161536,
stimoli/01.full/F01-Surprise-Face Forward.mp4,surprised,full,femmina,1,6,720,576,49,,,,,,,,,,,,,,,,,0,0,0,0,,,,,,,,,0,32,32,48,,,0.1392599999671802,986.5550044000847,0.14659409993328154,0.0007867999374866486,0.0007867999374866486,992.5127540000249,992.5127540000249,0.009809399954974651,44.0,-214.0,1,0,0,2.1618377999402583,'click_1',1.3199984095990658e-05,994.6751753999852,0.008713999995961785,,0.002598599996417761,0.002598599996417761,995.1782871000469,995.1782871000469,995.1782871000469,0.011844699969515204,153.0,-27.0,1,0,0,2.4032361999852583,'click_2',1.279998105019331e-05,0.008813599939458072,,,14,001,control,22,m,16,1,ale_ila,2024-04-05_10h15.59.193,CPO_EEG,2022.2.1,99.62590480161536,
stimoli/01.full/F01-Joy-Face Forward.mp4,happy,full,femmina,1,6,720,576,41,,,,,,,,,,,,,,,,,0,0,0,0,,,,,,,,,0,33,33,40,,,0.13913769996725023,999.2190780000528,0.14601899997796863,0.0007891000714153051,0.0007891000714153051,1005.1673084000358,1005.1673084000358,0.009854000061750412,117.0,68.0,1,0,0,7.763746500015259,'click_1',1.2999982573091984e-05,1012.9316046000458,0.008730300003662705,,0.0025371999945491552,0.0025371999945491552,1013.434688600013,1013.434688600013,1013.434688600013,0.01182320003863424,21.0,101.0,1,0,0,1.8802625999087468,'click_2',1.3699987903237343e-05,0.008876799955032766,,,14,001,control,22,m,16,1,ale_ila,2024-04-05_10h15.59.193,CPO_EEG,2022.2.1,99.62590480161536,
stimoli/02.subtle/JM1_Surprise.mp4,surprised,subtle,maschio,7,10,1646,926,23,,,,,,,,,,,,,,,,,0,0,0,0,,,,,,,,,0,34,34,22,,,0.14782610000111163,1016.9615801000036,0.15515280002728105,0.0008941000560298562,0.0008941000560298562,1027.3164858000819,1027.3164858000819,0.009800600004382432,33.0,-146.0,1,0,0,3.9416145000141114,'click_1',1.2899981811642647e-05,1031.258733100025,0.008739900076761842,,0.0020975000225007534,0.0020975000225007534,1031.7613460000139,1031.7613460000139,1031.7613460000139,0.01135210006032139,63.0,-77.0,1,0,0,1.1764787000138313,'click_2',1.2699980288743973e-05,0.008746900013647974,,,14,001,control,22,m,16,1,ale_ila,2024-04-05_10h15.59.193,CPO_EEG,2022.2.1,99.62590480161536,
stimoli/02.subtle/JF1_Anger.mp4,angry,subtle,femmina,5,10,1646,926,5,,,,,,,,,,,,,,,,,0,0,0,0,,,,,,,,,0,35,35,4,,,0.14371289999689907,1034.5804377000313,0.15103339997585863,0.0007165001006796956,0.0007165001006796956,1045.3294877000153,1045.3294877000153,0.009741200017742813,-113.0,-96.0,1,0,0,4.033149700029753,'click_1',1.3399985618889332e-05,1049.3624748000875,0.00802740000654012,,0.0013921000063419342,0.0013921000063419342,1049.8651522999862,1049.8651522999862,1049.8651522999862,0.010720499907620251,-70.0,-114.0,1,0,0,0.9045202000997961,'click_2',1.309998333454132e-05,0.009128800011239946,,,14,001,control,22,m,16,1,ale_ila,2024-04-05_10h15.59.193,CPO_EEG,2022.2.1,99.62590480161536,
stimoli/02.subtle/JM1_Happiness.mp4,happy,subtle,maschio,7,10,1646,926,15,,,,,,,,,,,,,,,,,0,0,0,0,,,,,,,,,0,36,36,14,,,0.15026829997077584,1052.4188080000458,0.1576587000163272,0.0007073000306263566,0.0007073000306263566,1062.7698857000796,1062.7698857000796,0.009807400056160986,195.0,36.0,1,0,0,5.651073399931192,'click_1',1.2999982573091984e-05,1068.4217234000098,0.009011799935251474,,0.0024818999227136374,0.0024818999227136374,1068.9245365000097,1068.9245365000097,1068.9245365000097,0.011874599964357913,120.0,77.0,1,0,0,1.4480270000640303,'click_2',1.3199984095990658e-05,0.00872349995188415,,,14,001,control,22,m,16,1,ale_ila,2024-04-05_10h15.59.193,CPO_EEG,2022.2.1,99.62590480161536,
stimoli/01.full/F03-Sadness-Face Forward.mp4,sad,full,femmina,2,6,720,576,46,,,,,,,,,,,,,,,,,0,0,0,0,,,,,,,,,0,37,37,45,,,0.1390809000004083,1072.0105097000487,0.14652720000594854,0.0007865000516176224,0.0007865000516176224,1077.9661074000178,1077.9661074000178,0.00967639998998493,-52.0,-203.0,1,0,0,1.2261981999035925,'click_1',1.3399985618889332e-05,1079.1930032999953,0.008793700020760298,,0.0023686999920755625,0.0023686999920755625,1079.6957620000467,1079.6957620000467,1079.6957620000467,0.011567399953491986,-35.0,196.0,1,0,0,0.8143198998877779,'click_2',1.650000922381878e-05,0.008799599949270487,,,14,001,control,22,m,16,1,ale_ila,2024-04-05_10h15.59.193,CPO_EEG,2022.2.1,99.62590480161536,
stimoli/02.subtle/JM1_Disgust.mp4,disgusted,subtle,maschio,7,10,1646,926,11,,,,,,,,,,,,,,,,,0,0,0,0,,,,,,,,,0,38,38,10,,,0.14155189995653927,1082.1504740000237,0.1487712999805808,0.0007020999910309911,0.0007020999910309911,1092.499814299983,1092.499814299983,0.009739100001752377,-150.0,112.0,1,0,0,3.7101800999371335,'click_1',1.3699987903237343e-05,1096.2105622000527,0.00880670000333339,,0.002278300002217293,0.002278300002217293,1096.7132426999742,1096.7132426999742,1096.7132426999742,0.011532000033184886,-3.0,3.0,1,0,0,8.628158499952406,'click_2',1.279998105019331e-05,0.008760099997743964,,,14,001,control,22,m,16,1,ale_ila,2024-04-05_10h15.59.193,CPO_EEG,2022.2.1,99.62590480161536,
stimoli/01.full/F01-Disgust-Face Forward.mp4,disgusted,full,femmina,1,6,720,576,37,,,,,,,,,,,,,,,,,0,0,0,0,,,,,,,,,0,39,39,36,,,0.14619550004135817,1106.9865338000236,0.15348770003765821,0.0007763999747112393,0.0007763999747112393,1112.9374333000742,1112.9374333000742,0.009669999941252172,-115.0,166.0,1,0,0,2.473331099958159,'click_1',1.2999982573091984e-05,1115.4113898000214,0.008680499973706901,,0.0022911999840289354,0.0022911999840289354,1115.9140938000055,1115.9140938000055,1115.9140938000055,0.011416199966333807,-118.0,179.0,1,0,0,1.7695017999503762,'click_2',1.3299984857439995e-05,0.00883920001797378,,,14,001,control,22,m,16,1,ale_ila,2024-04-05_10h15.59.193,CPO_EEG,2022.2.1,99.62590480161536,
stimoli/01.full/F01-Neutral-Face Forward.mp4,neutral,full,femmina,1,6,720,576,53,,,,,,,,,,,,,,,,,0,0,0,0,,,,,,,,,0,40,40,52,,,0.13866850000340492,1119.3213948999764,0.146198800066486,0.0007810000097379088,0.0007810000097379088,1125.2695532999933,1125.2695532999933,0.009665299905464053,0.0,0.0,1,0,0,3.076281400048174,'click_1',1.3399985618889332e-05,1128.346621499979,0.008863699971698225,,0.0023102000122889876,0.0023102000122889876,1128.849312699982,1128.849312699982,1128.849312699982,0.011586299980990589,0.0,0.0,1,0,0,0.32147740002255887,'click_2',1.3299984857439995e-05,0.008903400041162968,,,14,001,control,22,m,16,1,ale_ila,2024-04-05_10h15.59.193,CPO_EEG,2022.2.1,99.62590480161536,
stimoli/02.subtle/JF1_Happiness.mp4,happy,subtle,femmina,5,10,1646,926,13,,,,,,,,,,,,,,,,,0,0,0,0,,,,,,,,,0,41,41,12,,,0.1414993000216782,1130.8112068000482,0.14880770002491772,0.0008415000047534704,0.0008415000047534704,1141.5630236000288,1141.5630236000288,0.009765999973751605,43.0,190.0,1,0,0,1.2061280999332666,'click_1',1.3999990187585354e-05,1142.7700959000504,0.009055400034412742,,0.002765199984423816,0.002765199984423816,1143.2731050000293,1143.2731050000293,1143.2731050000293,0.012081400025635958,211.0,43.0,1,0,0,1.186366599984467,'click_2',1.2899981811642647e-05,0.00884359993506223,,,14,001,control,22,m,16,1,ale_ila,2024-04-05_10h15.59.193,CPO_EEG,2022.2.1,99.62590480161536,
stimoli/02.subtle/JM2_Anger.mp4,angry,subtle,maschio,8,10,1646,926,8,,,,,,,,,,,,,,,,,0,0,0,0,,,,,,,,,0,42,42,7,,,0.1488564999308437,1146.1071600000141,0.15627119992859662,0.0007099000504240394,0.0007099000504240394,1157.0242739000823,1157.0242739000823,0.009734399965964258,-191.0,-48.0,1,0,0,1.8192221000790596,'click_1',1.3900105841457844e-05,1158.8443803000264,0.009113600011914968,,0.002787100034765899,0.002787100034765899,1159.3472920000786,1159.3472920000786,1159.3472920000786,0.012070000055246055,-63.0,-90.0,1,0,0,4.0021918000420555,'click_2',1.3399985618889332e-05,0.008783999946899712,,,14,001,control,22,m,16,1,ale_ila,2024-04-05_10h15.59.193,CPO_EEG,2022.2.1,99.62590480161536,
stimoli/02.subtle/JF1_Sadness.mp4,sad,subtle,femmina,5,10,1646,926,17,,,,,,,,,,,,,,,,,0,0,0,0,,,,,,,,,0,43,43,16,,,0.1518301999894902,1165.0001632000785,0.15907539997715503,0.000861800042912364,0.000861800042912364,1175.7518163999775,1175.7518163999775,0.009690099977888167,-114.0,-166.0,1,0,0,2.633957999991253,'click_1',1.2800097465515137e-05,1178.3865330000408,0.00874750001821667,,0.002385100000537932,0.002385100000537932,1178.8894162999932,1178.8894162999932,1178.8894162999932,0.011613900074735284,-183.0,-35.0,1,0,0,0.8546443999512121,'click_2',1.379998866468668e-05,0.00875619996804744,,,14,001,control,22,m,16,1,ale_ila,2024-04-05_10h15.59.193,CPO_EEG,2022.2.1,99.62590480161536,
stimoli/01.full/F03-Joy-Face Forward.mp4,happy,full,femmina,2,6,720,576,42,,,,,,,,,,,,,,,,,0,0,0,0,,,,,,,,,0,44,44,41,,,0.14912259997799993,1181.392073999974,0.15644309995695949,0.0008013999322429299,0.0008013999322429299,1187.3406965000322,1187.3406965000322,0.009743999922648072,175.0,104.0,1,0,0,1.1052600999828428,'click_1',1.4499993994832039e-05,1188.446628900012,0.008839800022542477,,0.002351800096221268,0.002351800096221268,1188.9494868000038,1188.9494868000038,1188.9494868000038,0.011721700080670416,141.0,-33.0,1,0,0,2.252885299967602,'click_2',1.309998333454132e-05,0.008773399982601404,,,14,001,control,22,m,16,1,ale_ila,2024-04-05_10h15.59.193,CPO_EEG,2022.2.1,99.62590480161536,
stimoli/01.full/F03-Disgust-Face Forward.mp4,disgusted,full,femmina,2,6,720,576,38,,,,,,,,,,,,,,,,,0,0,0,0,,,,,,,,,0,45,45,37,,,0.16832469997461885,1192.8694843000267,0.17567759996745735,0.0006742000114172697,0.0006742000114172697,1198.8199046000373,1198.8199046000373,0.009895900031551719,-167.0,106.0,1,0,0,2.0810904999962077,'click_1',1.3299984857439995e-05,1200.901464399998,0.008835599990561604,,0.0022609999869018793,0.0022609999869018793,1201.4042517000344,1201.4042517000344,1201.4042517000344,0.011662600096315145,-81.0,51.0,1,0,0,1.5884946000296623,'click_2',1.309998333454132e-05,0.008813099935650826,,,14,001,control,22,m,16,1,ale_ila,2024-04-05_10h15.59.193,CPO_EEG,2022.2.1,99.62590480161536,
stimoli/02.subtle/JF2_Disgust.mp4,disgusted,subtle,femmina,6,10,1646,926,10,,,,,,,,,,,,,,,,,0,0,0,0,,,,,,,,,0,46,46,9,,,0.15059380000457168,1204.642081900034,0.15792859997600317,0.0008905999129638076,0.0008905999129638076,1214.992970100022,1214.992970100022,0.00967489997856319,-77.0,114.0,1,0,0,3.3788065999979153,'click_1',1.309998333454132e-05,1218.3728190000402,0.00906139996368438,,0.002560799941420555,0.002560799941420555,1218.8753575000446,1218.8753575000446,1218.8753575000446,0.011600099969655275,-75.0,110.0,1,0,0,1.4576118000550196,'click_2',1.4199991710484028e-05,0.008976200013421476,,,14,001,control,22,m,16,1,ale_ila,2024-04-05_10h15.59.193,CPO_EEG,2022.2.1,99.62590480161536,
stimoli/01.full/M02-Surprise-Face Forward.mp4,surprised,full,maschio,3,6,720,576,51,,,,,,,,,,,,,,,,,0,0,0,0,,,,,,,,,0,47,47,50,,,0.147446500021033,1221.9794547000201,0.1547252000309527,0.0007839000318199396,0.0007839000318199396,1227.9298560000025,1227.9298560000025,0.00970180006697774,55.0,-200.0,1,0,0,2.221799899940379,'click_1',1.309998333454132e-05,1230.1523469000822,0.008821299998089671,,0.0023312000557780266,0.0023312000557780266,1230.6562429000624,1230.6562429000624,1230.6562429000624,0.012736800010316074,106.0,-20.0,1,0,0,3.4698122000554577,'click_2',1.4399993233382702e-05,0.008842899929732084,,,14,001,control,22,m,16,1,ale_ila,2024-04-05_10h15.59.193,CPO_EEG,2022.2.1,99.62590480161536,
stimoli/02.subtle/JM1_Sadness.mp4,sad,subtle,maschio,7,10,1646,926,19,,,,,,,,,,,,,,,,,0,0,0,0,,,,,,,,,0,48,48,18,,,0.17839289992116392,1235.8020644000499,0.18560879991855472,0.0007301000878214836,0.0007301000878214836,1246.1168476999737,1246.1168476999737,0.009694400010630488,-84.0,-125.0,1,0,0,6.6764347000280395,'click_1',1.4199991710484028e-05,1252.7943142000586,0.009184599970467389,,0.002877500024624169,0.002877500024624169,1253.2971837000223,1253.2971837000223,1253.2971837000223,0.012078200001269579,-139.0,-35.0,1,0,0,8.88025629997719,'click_2',1.3399985618889332e-05,0.009078700095415115,,,14,001,control,22,m,16,1,ale_ila,2024-04-05_10h15.59.193,CPO_EEG,2022.2.1,99.62590480161536,
stimoli/01.full/M02-Neutral-Face Forward.mp4,neutral,full,maschio,3,6,720,576,55,,,,,,,,,,,,,,,,,0,0,0,0,,,,,,,,,0,49,49,54,,,0.1537216000724584,1263.8303759000264,0.16130050003994256,0.0008105000015348196,0.0008105000015348196,1269.7849512000103,1269.7849512000103,0.009877400007098913,52.0,-75.0,1,0,0,2.1210804999573156,'click_1',2.9099988751113415e-05,1271.9066257000668,0.008820999995805323,,0.0024683999363332987,0.0024683999363332987,1272.4095306000672,1272.4095306000672,1272.4095306000672,0.011762099922634661,-4.0,10.0,1,0,0,1.0557891000062227,'click_2',1.3599987141788006e-05,0.008811600040644407,,,14,001,control,22,m,16,1,ale_ila,2024-04-05_10h15.59.193,CPO_EEG,2022.2.1,99.62590480161536,
stimoli/02.subtle/JM1_Fear.mp4,fear,subtle,maschio,7,10,1646,926,3,,,,,,,,,,,,,,,,,0,0,0,0,,,,,,,,,0,50,50,2,,,0.14726170001085848,1275.1113603999838,0.15457550005521625,0.0007702000439167023,0.0007702000439167023,1285.4643467999995,1285.4643467999995,0.009877300006337464,-124.0,-171.0,1,0,0,2.4633596999337897,'click_1',1.4199991710484028e-05,1287.9282504000003,0.008820099988952279,,0.0020858999341726303,0.0020858999341726303,1288.4307429000037,1288.4307429000037,1288.4307429000037,0.011320499936118722,1.0,0.0,1,0,0,1.4678800000110641,'click_2',1.3500102795660496e-05,0.009071700042113662,,,14,001,control,22,m,16,1,ale_ila,2024-04-05_10h15.59.193,CPO_EEG,2022.2.1,99.62590480161536,
stimoli/01.full/M02-Sadness-Face Forward.mp4,sad,full,maschio,3,6,720,576,47,,,,,,,,,,,,,,,,,0,0,0,0,,,,,,,,,0,51,51,46,,,0.14779320009984076,1291.5453040000284,0.1551271000644192,0.0006543999770656228,0.0006543999770656228,1297.1427629999816,1297.1427629999816,0.009823699947446585,-78.0,-124.0,1,0,0,6.274953100015409,'click_1',1.2699980288743973e-05,1303.4183219000697,0.008961400017142296,,0.0025179999647662044,0.0025179999647662044,1303.9212621999905,1303.9212621999905,1303.9212621999905,0.0119387999875471,-79.0,63.0,1,0,0,1.116263100062497,'click_2',1.379998866468668e-05,0.008831300074234605,,,14,001,control,22,m,16,1,ale_ila,2024-04-05_10h15.59.193,CPO_EEG,2022.2.1,99.62590480161536,
stimoli/01.full/M02-Disgust-Face Forward.mp4,disgusted,full,maschio,3,6,720,576,39,,,,,,,,,,,,,,,,,0,0,0,0,,,,,,,,,0,52,52,38,,,0.1489702999824658,1306.6853687000694,0.1564268000656739,0.000777499983087182,0.000777499983087182,1312.6334191000788,1312.6334191000788,0.009787100018002093,-120.0,160.0,1,0,0,2.5434272000566125,'click_1',1.2499978765845299e-05,1315.1774500000756,0.008805699995718896,,0.0026067999424412847,0.0026067999424412847,1315.6803790000267,1315.6803790000267,1315.6803790000267,0.01176110003143549,-86.0,47.0,1,0,0,2.604443100048229,'click_2',1.3999990187585354e-05,0.00892530009150505,,,14,001,control,22,m,16,1,ale_ila,2024-04-05_10h15.59.193,CPO_EEG,2022.2.1,99.62590480161536,
stimoli/01.full/M03-Disgust-Face Forward.mp4,disgusted,full,maschio,4,6,720,576,40,,,,,,,,,,,,,,,,,0,0,0,0,,,,,,,,,0,53,53,39,,,0.14809979998972267,1319.9320300000254,0.15553640003781766,0.0007964000105857849,0.0007964000105857849,1325.881916900049,1325.881916900049,0.009704400086775422,-165.0,125.0,1,0,0,0.9647841000696644,'click_1',1.3299984857439995e-05,1326.8474960000021,0.008916899911127985,,0.002653299947269261,0.002653299947269261,1327.3507706000237,1327.3507706000237,1327.3507706000237,0.01223489991389215,-174.0,122.0,1,0,0,1.1868396999780089,'click_2',1.4399993233382702e-05,0.008285599993541837,,,14,001,control,22,m,16,1,ale_ila,2024-04-05_10h15.59.193,CPO_EEG,2022.2.1,99.62590480161536,
stimoli/01.full/M03-Neutral-Face Forward.mp4,neutral,full,maschio,4,6,720,576,56,,,,,,,,,,,,,,,,,0,0,0,0,,,,,,,,,0,54,54,55,,,0.17567899997811764,1330.211786000058,0.1828911000629887,0.0006700999801978469,0.0006700999801978469,1336.1255833000178,1336.1255833000178,0.009905399987474084,0.0,0.0,1,0,0,4.122329200035892,'click_1',1.3299984857439995e-05,1340.24837200006,0.008912999997846782,,0.002351399976760149,0.002351399976760149,1340.7511272000847,1340.7511272000847,1340.7511272000847,0.011695299996063113,0.0,0.0,1,0,0,0.4822430999483913,'click_2',1.3299984857439995e-05,0.009101499919779599,,,14,001,control,22,m,16,1,ale_ila,2024-04-05_10h15.59.193,CPO_EEG,2022.2.1,99.62590480161536,
stimoli/02.subtle/JF2_Happiness.mp4,happy,subtle,femmina,6,9,1646,926,14,,,,,,,,,,,,,,,,,0,0,0,0,,,,,,,,,0,55,55,13,,,0.1516571999527514,1342.8838849000167,0.15902279992587864,0.0008013999322429299,0.0008013999322429299,1352.319317699992,1352.319317699992,0.009624199941754341,168.0,114.0,1,0,0,4.595122899976559,'click_1',1.309998333454132e-05,1356.9152087999973,0.00879599992185831,,0.0022237999364733696,0.0022237999364733696,1357.4179612000007,1357.4179612000007,1357.4179612000007,0.011573800002224743,128.0,-83.0,1,0,0,1.1767753000603989,'click_2',1.4199991710484028e-05,0.008844599942676723,,,14,001,control,22,m,16,1,ale_ila,2024-04-05_10h15.59.193,CPO_EEG,2022.2.1,99.62590480161536,
,,,,,,,,,,,,,,,,,,,,,,,,,0,0,0,0,,,,,,,,,,,,,,,,,,,,,,,,,,,,,,,,,,,,,,,,,,,,,,,,,,,14,001,control,22,m,16,1,ale_ila,2024-04-05_10h15.59.193,CPO_EEG,2022.2.1,99.62590480161536,
,,,,,,,,,,,,,,,,,,,,,,,,,1,0,1,0,,,,,0,0,0,0,,,,,,,,,,,,,,,,,,,,,,,,,,,,,,,,,,,,,,,,,,,14,001,control,22,m,16,1,ale_ila,2024-04-05_10h15.59.193,CPO_EEG,2022.2.1,99.62590480161536,
stimoli/01.full/F03-Anger-Face Forward.mp4,angry,full,femmina,2,6,720,576,34,,,,,,,,,,,,,,,,,1,0,1,0,,,,,,,,,0,0,0,33,,,0.13555219990666956,1373.5174878999824,0.14286159991752356,0.0007975000189617276,0.0007975000189617276,1379.4684795000358,1379.4684795000358,0.009831600007601082,-22.0,138.0,1,0,0,2.6844431000063196,'click_1',1.4199991710484028e-05,1382.1535250999732,0.008438599994406104,,0.001869899919256568,0.001869899919256568,1382.6563481000485,1382.6563481000485,1382.6563481000485,0.011282699997536838,-22.0,133.0,1,0,0,5.048989700037055,'click_2',1.3499986380338669e-05,0.008685600012540817,,,14,001,control,22,m,16,1,ale_ila,2024-04-05_10h15.59.193,CPO_EEG,2022.2.1,99.62590480161536,
stimoli/01.full/M02-Anger-Face Forward.mp4,angry,full,maschio,3,6,720,576,35,,,,,,,,,,,,,,,,,1,0,1,0,,,,,,,,,0,1,1,34,,,0.13071139995008707,1389.3351112999953,0.1380356999579817,0.0006762000266462564,0.0006762000266462564,1395.3298965999857,1395.3298965999857,0.009804900037124753,-27.0,131.0,1,0,0,4.645092700025998,'click_1',1.2999982573091984e-05,1399.9755185000831,0.008861400070600212,,0.002279200009070337,0.002279200009070337,1400.4781666999916,1400.4781666999916,1400.4781666999916,0.011536900070495903,0.0,0.0,1,0,0,0.7739324000431225,'click_2',1.3399985618889332e-05,0.00890729995444417,,,14,001,control,22,m,16,1,ale_ila,2024-04-05_10h15.59.193,CPO_EEG,2022.2.1,99.62590480161536,
stimoli/02.subtle/JM1_Surprise.mp4,surprised,subtle,maschio,7,10,1646,926,23,,,,,,,,,,,,,,,,,1,0,1,0,,,,,,,,,0,2,2,22,,,0.1334694999968633,1402.884342800011,0.1407406999496743,0.0007181999972090125,0.0007181999972090125,1413.2402969000395,1413.2402969000395,0.009710300015285611,40.0,-149.0,1,0,0,1.9508800000185147,'click_1',1.3199984095990658e-05,1415.1917511000065,0.008765600039623678,,0.002678200020454824,0.002678200020454824,1415.6949865000788,1415.6949865000788,1415.6949865000788,0.012032500002533197,62.0,-80.0,1,0,0,0.9953506999881938,'click_2',1.309998333454132e-05,0.008885500021278858,,,14,001,control,22,m,16,1,ale_ila,2024-04-05_10h15.59.193,CPO_EEG,2022.2.1,99.62590480161536,
stimoli/02.subtle/JF2_Fear.mp4,fear,subtle,femmina,6,10,1646,926,2,,,,,,,,,,,,,,,,,1,0,1,0,,,,,,,,,0,3,3,1,,,0.1375236000167206,1418.3266101999907,0.14482739998493344,0.0012295000487938523,0.0012295000487938523,1428.6785342000658,1428.6785342000658,0.009701000060886145,-130.0,-81.0,1,0,0,4.092041399911977,'click_1',1.3699987903237343e-05,1432.7718136999756,0.00892390008084476,,0.0024757999926805496,0.0024757999926805496,1433.2745737000369,1433.2745737000369,1433.2745737000369,0.011742400005459785,-67.0,-121.0,1,0,0,0.854398199939169,'click_2',1.3299984857439995e-05,0.00907779997214675,,,14,001,control,22,m,16,1,ale_ila,2024-04-05_10h15.59.193,CPO_EEG,2022.2.1,99.62590480161536,
stimoli/02.subtle/JM1_Disgust.mp4,disgusted,subtle,maschio,7,10,1646,926,11,,,,,,,,,,,,,,,,,1,0,1,0,,,,,,,,,0,4,4,10,,,0.13515029998961836,1435.7629874000559,0.14248109993059188,0.0006701999809592962,0.0006701999809592962,1446.1183703000424,1446.1183703000424,0.009829299990087748,-114.0,75.0,1,0,0,2.664310000021942,'click_1',1.3199984095990658e-05,1448.7831839000573,0.008880899986252189,,0.0023523999843746424,0.0023523999843746424,1449.2859372000676,1449.2859372000676,1449.2859372000676,0.011623400030657649,-56.0,70.0,1,0,0,3.932509999955073,'click_2',1.3299984857439995e-05,0.00881570007186383,,,14,001,control,22,m,16,1,ale_ila,2024-04-05_10h15.59.193,CPO_EEG,2022.2.1,99.62590480161536,
stimoli/01.full/M02-Sadness-Face Forward.mp4,sad,full,maschio,3,6,720,576,47,,,,,,,,,,,,,,,,,1,0,1,0,,,,,,,,,0,5,5,46,,,0.13458820001687855,1454.8519092000788,0.14198180008679628,0.0006623000372201204,0.0006623000372201204,1460.4412146999966,1460.4412146999966,0.009900699951685965,-81.0,123.0,1,0,0,9.342346799909137,'click_1',1.3499986380338669e-05,1469.7839272000128,0.008807300007902086,,0.002490999992005527,0.002490999992005527,1470.2867850000039,1470.2867850000039,1470.2867850000039,0.011718500056304038,-3.0,-2.0,1,0,0,0.834224299993366,'click_2',1.3200100511312485e-05,0.008849700097925961,,,14,001,control,22,m,16,1,ale_ila,2024-04-05_10h15.59.193,CPO_EEG,2022.2.1,99.62590480161536,
stimoli/02.subtle/JF1_Disgust.mp4,disgusted,subtle,femmina,5,10,1646,926,9,,,,,,,,,,,,,,,,,1,0,1,0,,,,,,,,,0,6,6,8,,,0.13706370000727475,1472.7570261000656,0.14439610007684678,0.0007560000522062182,0.0007560000522062182,1483.5126196000492,1483.5126196000492,0.009877500007860363,-166.0,108.0,1,0,0,1.1964833999518305,'click_1',1.2999982573091984e-05,1484.7095547000645,0.00876809994224459,,0.002298999927006662,0.002298999927006662,1485.2123286999995,1485.2123286999995,1485.2123286999995,0.011572299990803003,-43.0,-83.0,1,0,0,3.3787408999633044,'click_2',1.309998333454132e-05,0.008877099957317114,,,14,001,control,22,m,16,1,ale_ila,2024-04-05_10h15.59.193,CPO_EEG,2022.2.1,99.62590480161536,
stimoli/02.subtle/JM1_Anger.mp4,angry,subtle,maschio,7,10,1646,926,7,,,,,,,,,,,,,,,,,1,0,1,0,,,,,,,,,0,7,7,6,,,0.13637339998967946,1490.2262810000684,0.14368599990848452,0.0008972000796347857,0.0008972000796347857,1500.5812240000814,1500.5812240000814,0.00974000000860542,-200.0,-25.0,1,0,0,1.5276806999463588,'click_1',1.309998333454132e-05,1502.1095725999912,0.008690299931913614,,0.0022893999703228474,0.0022893999703228474,1502.6124529000372,1502.6124529000372,1502.6124529000372,0.011588199995458126,-14.0,64.0,1,0,0,1.6289652999257669,'click_2',1.2899981811642647e-05,0.008961600018665195,,,14,001,control,22,m,16,1,ale_ila,2024-04-05_10h15.59.193,CPO_EEG,2022.2.1,99.62590480161536,
stimoli/01.full/M02-Neutral-Face Forward.mp4,neutral,full,maschio,3,6,720,576,55,,,,,,,,,,,,,,,,,1,0,1,0,,,,,,,,,0,8,8,54,,,0.13379360001999885,1505.8743176000426,0.14136100001633167,0.0006765000289306045,0.0006765000289306045,1511.8256164999912,1511.8256164999912,0.009773500030860305,-3.0,0.0,1,0,0,3.368169300025329,'click_1',1.3199984095990658e-05,1515.194492300041,0.00901689997408539,,0.0027384000131860375,0.0027384000131860375,1515.6974076000042,1515.6974076000042,1515.6974076000042,0.011981199961155653,-13.0,5.0,1,0,0,0.8039658999769017,'click_2',1.4399993233382702e-05,0.008747200015932322,,,14,001,control,22,m,16,1,ale_ila,2024-04-05_10h15.59.193,CPO_EEG,2022.2.1,99.62590480161536,
stimoli/01.full/F03-Neutral-Face Forward.mp4,neutral,full,femmina,2,6,720,576,54,,,,,,,,,,,,,,,,,1,0,1,0,,,,,,,,,0,9,9,53,,,0.13466440001502633,1518.1349401000189,0.14197240001522005,0.0007685000309720635,0.0007685000309720635,1524.0850071000168,1524.0850071000168,0.00983490003272891,0.0,0.0,1,0,0,0.8035845999838784,'click_1',1.379998866468668e-05,1524.8893224999774,0.008992300019599497,,0.0025810999795794487,0.0025810999795794487,1525.3922731999774,1525.3922731999774,1525.3922731999774,0.01197859994135797,0.0,0.0,1,0,0,0.3916436000727117,'click_2',1.3200100511312485e-05,0.009083500015549362,,,14,001,control,22,m,16,1,ale_ila,2024-04-05_10h15.59.193,CPO_EEG,2022.2.1,99.62590480161536,
stimoli/01.full/F03-Sadness-Face Forward.mp4,sad,full,femmina,2,6,720,576,46,,,,,,,,,,,,,,,,,1,0,1,0,,,,,,,,,0,10,10,45,,,0.1342425000621006,1527.4169379000086,0.14157690003048629,0.0006004000315442681,0.0006004000315442681,1533.367852400057,1533.367852400057,0.009792399941943586,-22.0,-204.0,1,0,0,1.1862660000333562,'click_1',1.3100099749863148e-05,1534.5545212000143,0.008747000014409423,,0.002319800085388124,0.002319800085388124,1535.0573370000347,1535.0573370000347,1535.0573370000347,0.011618200107477605,-35.0,-191.0,1,0,0,0.9045579000376165,'click_2',1.3999990187585354e-05,0.009133200044743717,,,14,001,control,22,m,16,1,ale_ila,2024-04-05_10h15.59.193,CPO_EEG,2022.2.1,99.62590480161536,
stimoli/02.subtle/JM2_Disgust.mp4,disgusted,subtle,maschio,8,10,1646,926,12,,,,,,,,,,,,,,,,,1,0,1,0,,,,,,,,,0,11,11,11,,,0.1341909000184387,1537.595009200042,0.14158130006399006,0.0006712999893352389,0.0006712999893352389,1548.1427544000326,1548.1427544000326,0.00976069993339479,-110.0,165.0,1,0,0,4.023189000086859,'click_1',1.3399985618889332e-05,1552.166415499989,0.008765399921685457,,0.002434200025163591,0.002434200025163591,1552.6693007000722,1552.6693007000722,1552.6693007000722,0.011623900034464896,-95.0,15.0,1,0,0,1.117104300064966,'click_2',1.2599979527294636e-05,0.008036799961701035,,,14,001,control,22,m,16,1,ale_ila,2024-04-05_10h15.59.193,CPO_EEG,2022.2.1,99.62590480161536,
stimoli/01.full/F01-Fear-Face Forward.mp4,fear,full,femmina,1,6,720,576,29,,,,,,,,,,,,,,,,,1,0,1,0,,,,,,,,,0,12,12,28,,,0.13354069995693862,1555.4189015000593,0.14088980003725737,0.0006659999489784241,0.0006659999489784241,1561.3699120000238,1561.3699120000238,0.009786800015717745,-112.0,-170.0,1,0,0,1.1359488000161946,'click_1',1.3399985618889332e-05,1562.506667700014,0.00914750003721565,,0.002807200071401894,0.002807200071401894,1563.009604300023,1563.009604300023,1563.009604300023,0.012078700005076826,20.0,-103.0,1,0,0,1.136752000078559,'click_2',1.3399985618889332e-05,0.00804810004774481,,,14,001,control,22,m,16,1,ale_ila,2024-04-05_10h15.59.193,CPO_EEG,2022.2.1,99.62590480161536,
stimoli/02.subtle/JF2_Disgust.mp4,disgusted,subtle,femmina,6,10,1646,926,10,,,,,,,,,,,,,,,,,1,0,1,0,,,,,,,,,0,13,13,9,,,0.13623120007105172,1565.7815087999916,0.14363629999570549,0.000741699943318963,0.000741699943318963,1576.1361756999977,1576.1361756999977,0.00979489996097982,-98.0,165.0,1,0,0,3.257520299986936,'click_1',1.3899989426136017e-05,1579.3945204999764,0.009053999907337129,,0.0028110999846830964,0.0028110999846830964,1579.8975105000427,1579.8975105000427,1579.8975105000427,0.012103699962608516,-83.0,52.0,1,0,0,0.9045959999784827,'click_2',1.4200108125805855e-05,0.008724800078198314,,,14,001,control,22,m,16,1,ale_ila,2024-04-05_10h15.59.193,CPO_EEG,2022.2.1,99.62590480161536,
stimoli/02.subtle/JF1_Neutral.mp4,neutral,subtle,femmina,5,10,1646,926,25,,,,,,,,,,,,,,,,,1,0,1,0,,,,,,,,,0,14,14,24,,,0.13498070009518415,1582.4358370000264,0.14217890007421374,0.0008901000255718827,0.0008901000255718827,1593.1924761000555,1593.1924761000555,0.009772100020200014,0.0,0.0,1,0,0,0.662760499981232,'click_1',1.3599987141788006e-05,1593.856096600066,0.00896690005902201,,0.0024733999744057655,0.0024733999744057655,1594.3588622000534,1594.3588622000534,1594.3588622000534,0.011717400047928095,0.0,0.0,1,0,0,0.21082689997274429,'click_2',1.309998333454132e-05,0.00901689997408539,,,14,001,control,22,m,16,1,ale_ila,2024-04-05_10h15.59.193,CPO_EEG,2022.2.1,99.62590480161536,
stimoli/02.subtle/JF1_Surprise.mp4,surprised,subtle,femmina,5,10,1646,926,21,,,,,,,,,,,,,,,,,1,0,1,0,,,,,,,,,0,15,15,20,,,0.1378683999646455,1596.2064847999718,0.1452359000686556,0.0007236000383272767,0.0007236000383272767,1606.9611491999822,1606.9611491999822,0.009742000023834407,111.0,-170.0,1,0,0,2.9158338999841362,'click_1',1.2999982573091984e-05,1609.8775784000754,0.008839800022542477,,0.002452199929393828,0.002452199929393828,1610.3805359000107,1610.3805359000107,1610.3805359000107,0.011810899944975972,24.0,-132.0,1,0,0,1.2166148000396788,'click_2',1.3399985618889332e-05,0.008757899980992079,,,14,001,control,22,m,16,1,ale_ila,2024-04-05_10h15.59.193,CPO_EEG,2022.2.1,99.62590480161536,
stimoli/01.full/F01-Sadness-Face Forward.mp4,sad,full,femmina,1,6,720,576,45,,,,,,,,,,,,,,,,,1,0,1,0,,,,,,,,,0,16,16,44,,,0.13364529993850738,1613.2295984000666,0.14100459998007864,0.0008036000654101372,0.0008036000654101372,1619.180683500017,1619.180683500017,0.009758600033819675,-30.0,-200.0,1,0,0,2.5637810999760404,'click_1',1.379998866468668e-05,1621.7454204000533,0.00915779999922961,,0.0027599999448284507,0.0027599999448284507,1622.2483049000148,1622.2483049000148,1622.2483049000148,0.012046499992720783,-1.0,3.0,1,0,0,1.0956901999888942,'click_2',1.3299984857439995e-05,0.008847900084219873,,,14,001,control,22,m,16,1,ale_ila,2024-04-05_10h15.59.193,CPO_EEG,2022.2.1,99.62590480161536,
stimoli/01.full/F01-Anger-Face Forward.mp4,angry,full,femmina,1,6,720,576,33,,,,,,,,,,,,,,,,,1,0,1,0,,,,,,,,,0,17,17,32,,,0.1340238000266254,1624.97683160007,0.1413397000869736,0.0006719999946653843,0.0006719999946653843,1630.9292419999838,1630.9292419999838,0.009843099978752434,-30.0,137.0,1,0,0,2.1919601000845432,'click_1',1.3499986380338669e-05,1633.1215847000713,0.008739399956539273,,0.0022541999351233244,0.0022541999351233244,1633.624449199997,1633.624449199997,1633.624449199997,0.011659999960102141,-30.0,136.0,1,0,0,1.2168142999289557,'click_2',1.3899989426136017e-05,0.008766600047238171,,,14,001,control,22,m,16,1,ale_ila,2024-04-05_10h15.59.193,CPO_EEG,2022.2.1,99.62590480161536,
stimoli/01.full/M03-Fear-Face Forward.mp4,fear,full,maschio,4,6,720,576,32,,,,,,,,,,,,,,,,,1,0,1,0,,,,,,,,,0,18,18,31,,,0.1345251000020653,1636.47462740005,0.14189800003077835,0.0007564000552520156,0.0007564000552520156,1642.4263861000072,1642.4263861000072,0.009696300025098026,35.0,-145.0,1,0,0,6.687024099985138,'click_1',1.379998866468668e-05,1649.1139930000063,0.008679299964569509,,0.0021533999824896455,0.0021533999824896455,1649.6166482000845,1649.6166482000845,1649.6166482000845,0.011389499995857477,39.0,-145.0,1,0,0,3.3791467000264674,'click_2',1.3299984857439995e-05,0.008807400008663535,,,14,001,control,22,m,16,1,ale_ila,2024-04-05_10h15.59.193,CPO_EEG,2022.2.1,99.62590480161536,
stimoli/01.full/F01-Disgust-Face Forward.mp4,disgusted,full,femmina,1,6,720,576,37,,,,,,,,,,,,,,,,,1,0,1,0,,,,,,,,,0,19,19,36,,,0.13329410005826503,1654.6280169000383,0.1406116000143811,0.0006720999954268336,0.0006720999954268336,1660.5812421999872,1660.5812421999872,0.009765999973751605,-102.0,164.0,1,0,0,1.3071543999249116,'click_1',1.3499986380338669e-05,1661.888957099989,0.008841199916787446,,0.002140500000678003,0.002140500000678003,1662.3914900000673,1662.3914900000673,1662.3914900000673,0.011406100005842745,-106.0,161.0,1,0,0,1.0555582999950275,'click_2',1.3399985618889332e-05,0.008742699981667101,,,14,001,control,22,m,16,1,ale_ila,2024-04-05_10h15.59.193,CPO_EEG,2022.2.1,99.62590480161536,
stimoli/01.full/M02-Joy-Face Forward.mp4,happy,full,maschio,3,6,720,576,43,,,,,,,,,,,,,,,,,1,0,1,0,,,,,,,,,0,20,20,42,,,0.13399529992602766,1665.0798334000865,0.1412949999794364,0.000676599913276732,0.000676599913276732,1671.031952099991,1671.031952099991,0.009831800009123981,169.0,100.0,1,0,0,2.986435899976641,'click_1',1.3399985618889332e-05,1674.0189056000672,0.008902900037355721,,0.0027233000146225095,0.0027233000146225095,1674.5220697000623,1674.5220697000623,1674.5220697000623,0.012111100018955767,146.0,19.0,1,0,0,2.0313914000289515,'click_2',1.4899997040629387e-05,0.008456700015813112,,,14,001,control,22,m,16,1,ale_ila,2024-04-05_10h15.59.193,CPO_EEG,2022.2.1,99.62590480161536,
stimoli/02.subtle/JF2_Sadness.mp4,sad,subtle,femmina,6,8,1646,926,18,,,,,,,,,,,,,,,,,1,0,1,0,,,,,,,,,0,21,21,17,,,0.1375848000170663,1678.190029600053,0.14488000003620982,0.0007792999967932701,0.0007792999967932701,1686.5022317999974,1686.5022317999974,0.009651700034737587,-196.0,-37.0,1,0,0,1.0351147999754176,'click_1',1.3499986380338669e-05,1687.5380921000615,0.008819399983622134,,0.002640899969264865,0.002640899969264865,1688.041115000029,1688.041115000029,1688.041115000029,0.01183360000140965,-21.0,-150.0,1,0,0,2.302462699939497,'click_2',1.5099998563528061e-05,0.008907799958251417,,,14,001,control,22,m,16,1,ale_ila,2024-04-05_10h15.59.193,CPO_EEG,2022.2.1,99.62590480161536,
stimoli/02.subtle/JM2_Fear.mp4,fear,subtle,maschio,8,10,1646,926,4,,,,,,,,,,,,,,,,,1,0,1,0,,,,,,,,,0,22,22,3,,,0.13516209996305406,1691.9778598999837,0.14265179994981736,0.0007180999964475632,0.0007180999964475632,1702.534766900004,1702.534766900004,0.009652200038544834,-114.0,-175.0,1,0,0,1.6793402000330389,'click_1',1.3299984857439995e-05,1704.2147259999765,0.008767799939960241,,0.0023151999339461327,0.0023151999339461327,1704.7175002000295,1704.7175002000295,1704.7175002000295,0.011579399928450584,-88.0,-22.0,1,0,0,2.1419780999422073,'click_2',1.3499986380338669e-05,0.00873529992531985,,,14,001,control,22,m,16,1,ale_ila,2024-04-05_10h15.59.193,CPO_EEG,2022.2.1,99.62590480161536,
stimoli/01.full/M02-Surprise-Face Forward.mp4,surprised,full,maschio,3,6,720,576,51,,,,,,,,,,,,,,,,,1,0,1,0,,,,,,,,,0,23,23,50,,,0.13338629994541407,1708.4918298000703,0.14077609998639673,0.0006639000494033098,0.0006639000494033098,1714.4439329999732,1714.4439329999732,0.009773600031621754,47.0,-191.0,1,0,0,1.5080200999509543,'click_1',1.3499986380338669e-05,1715.9526292000664,0.009083200013265014,,0.002534499973990023,0.002534499973990023,1716.4553949000547,1716.4553949000547,1716.4553949000547,0.01182149990927428,148.0,32.0,1,0,0,0.763800699962303,'click_2',1.2699980288743973e-05,0.009054600028321147,,,14,001,control,22,m,16,1,ale_ila,2024-04-05_10h15.59.193,CPO_EEG,2022.2.1,99.62590480161536,
stimoli/02.subtle/JF1_Sadness.mp4,sad,subtle,femmina,5,10,1646,926,17,,,,,,,,,,,,,,,,,1,0,1,0,,,,,,,,,0,24,24,16,,,0.1380781999323517,1718.8560760000255,0.145377799984999,0.0008550999918952584,0.0008550999918952584,1729.6106267999858,1729.6106267999858,0.009721699985675514,-79.0,-133.0,1,0,0,4.02253160008695,'click_1',1.3299984857439995e-05,1733.6342916000867,0.009251000010408461,,0.0026401999639347196,0.0026401999639347196,1734.1369093999965,1734.1369093999965,1734.1369093999965,0.01190609997138381,-123.0,-80.0,1,0,0,0.8942811000160873,'click_2',1.3199984095990658e-05,0.008968799957074225,,,14,001,control,22,m,16,1,ale_ila,2024-04-05_10h15.59.193,CPO_EEG,2022.2.1,99.62590480161536,
stimoli/02.subtle/JM1_Happiness.mp4,happy,subtle,maschio,7,10,1646,926,15,,,,,,,,,,,,,,,,,1,0,1,0,,,,,,,,,0,25,25,14,,,0.1352678999537602,1736.6653787000105,0.1426738000009209,0.0006689999718219042,0.0006689999718219042,1747.0211097000865,1747.0211097000865,0.009925800026394427,192.0,-44.0,1,0,0,1.0660160999977961,'click_1',1.3199984095990658e-05,1748.08736590005,0.008715900010429323,,0.0025924999499693513,0.0025924999499693513,1748.590551899979,1748.590551899979,1748.590551899979,0.01192690001334995,198.0,42.0,1,0,0,0.8744943999918178,'click_2',1.379998866468668e-05,0.008832199964672327,,,14,001,control,22,m,16,1,ale_ila,2024-04-05_10h15.59.193,CPO_EEG,2022.2.1,99.62590480161536,
stimoli/02.subtle/JM1_Sadness.mp4,sad,subtle,maschio,7,10,1646,926,19,,,,,,,,,,,,,,,,,1,0,1,0,,,,,,,,,0,26,26,18,,,0.13546929997392,1751.0992957000853,0.14277000003494322,0.0007169999880716205,0.0007169999880716205,1761.4538954000454,1761.4538954000454,0.009859599987976253,-12.0,-106.0,1,0,0,8.980037600034848,'click_1',1.3299984857439995e-05,1770.4343967000023,0.008789599989540875,,0.002752700005657971,0.002752700005657971,1770.9374364999821,1770.9374364999821,1770.9374364999821,0.011848599999211729,-11.0,-94.0,1,0,0,0.7639759999001399,'click_2',1.3299984857439995e-05,0.008855300024151802,,,14,001,control,22,m,16,1,ale_ila,2024-04-05_10h15.59.193,CPO_EEG,2022.2.1,99.62590480161536,
stimoli/01.full/F03-Joy-Face Forward.mp4,happy,full,femmina,2,6,720,576,42,,,,,,,,,,,,,,,,,1,0,1,0,,,,,,,,,0,27,27,41,,,0.13369160005822778,1773.3342455000384,0.14114730001892895,0.0008156000403687358,0.0008156000403687358,1779.2867015000666,1779.2867015000666,0.00987790001090616,184.0,102.0,1,0,0,2.835234300000593,'click_1',1.3999990187585354e-05,1782.1227344999788,0.009066300000995398,,0.0027123999316245317,0.0027123999316245317,1782.6257000999758,1782.6257000999758,1782.6257000999758,0.012087099952623248,50.0,76.0,1,0,0,1.2266580000286922,'click_2',1.3699987903237343e-05,0.008744999999180436,,,14,001,control,22,m,16,1,ale_ila,2024-04-05_10h15.59.193,CPO_EEG,2022.2.1,99.62590480161536,
stimoli/02.subtle/JM1_Neutral.mp4,neutral,subtle,maschio,7,10,1646,926,27,,,,,,,,,,,,,,,,,1,0,1,0,,,,,,,,,0,28,28,26,,,0.1344507000176236,1785.4855331000872,0.14166449999902397,0.0007091000443324447,0.0007091000443324447,1795.8410020000301,1795.8410020000301,0.009753899998031557,0.0,0.0,1,0,0,0.552213600021787,'click_1',1.4599994756281376e-05,1796.3940725000575,0.009041599929332733,,0.002431600005365908,0.002431600005365908,1796.8969245000044,1796.8969245000044,1796.8969245000044,0.011934399954043329,0.0,0.0,1,0,0,0.2611576000927016,'click_2',1.3199984095990658e-05,0.008900900022126734,,,14,001,control,22,m,16,1,ale_ila,2024-04-05_10h15.59.193,CPO_EEG,2022.2.1,99.62590480161536,
stimoli/01.full/M03-Sadness-Face Forward.mp4,sad,full,maschio,4,6,720,576,48,,,,,,,,,,,,,,,,,1,0,1,0,,,,,,,,,0,29,29,47,,,0.13335559994447976,1798.790157700074,0.1407510000281036,0.0006045999471098185,0.0006045999471098185,1804.7412357000867,1804.7412357000867,0.009780499967746437,-25.0,-146.0,1,0,0,3.147261400008574,'click_1',1.4599994756281376e-05,1807.8890137000708,0.008866899996064603,,0.0027571999235078692,0.0027571999235078692,1808.392156900023,1808.392156900023,1808.392156900023,0.01206470001488924,-93.0,-28.0,1,0,0,1.4880132999969646,'click_2',1.3100099749863148e-05,0.008975000004284084,,,14,001,control,22,m,16,1,ale_ila,2024-04-05_10h15.59.193,CPO_EEG,2022.2.1,99.62590480161536,
stimoli/01.full/F03-Fear-Face Forward.mp4,fear,full,femmina,2,6,720,576,30,,,,,,,,,,,,,,,,,1,0,1,0,,,,,,,,,0,30,30,29,,,0.13482280005700886,1811.5139308000216,0.14221340010408312,0.0008270000107586384,0.0008270000107586384,1817.4688680000836,1817.4688680000836,0.00964509998448193,-55.0,-81.0,1,0,0,4.163002699962817,'click_1',1.379998866468668e-05,1821.632679900038,0.0088363999966532,,0.002734699985012412,0.002734699985012412,1822.1356763000367,1822.1356763000367,1822.1356763000367,0.011874199961312115,19.0,-95.0,1,0,0,1.990892200032249,'click_2',1.400010660290718e-05,0.008807400008663535,,,14,001,control,22,m,16,1,ale_ila,2024-04-05_10h15.59.193,CPO_EEG,2022.2.1,99.62590480161536,
stimoli/01.full/F03-Surprise-Face Forward.mp4,surprised,full,femmina,2,6,720,576,50,,,,,,,,,,,,,,,,,1,0,1,0,,,,,,,,,0,31,31,49,,,0.13419610005803406,1825.759823600063,0.14157760003581643,0.0007841000333428383,0.0007841000333428383,1831.7130900999764,1831.7130900999764,0.009665600024163723,24.0,-141.0,1,0,0,2.462923699989915,'click_1',1.3499986380338669e-05,1834.1767090000212,0.008788599981926382,,0.002550999983213842,0.002550999983213842,1834.6797025999986,1834.6797025999986,1834.6797025999986,0.011834800010547042,51.0,-82.0,1,0,0,0.7638325999723747,'click_2',1.3500102795660496e-05,0.008794000023044646,,,14,001,control,22,m,16,1,ale_ila,2024-04-05_10h15.59.193,CPO_EEG,2022.2.1,99.62590480161536,
stimoli/02.subtle/JF1_Fear.mp4,fear,subtle,femmina,5,10,1646,926,1,,,,,,,,,,,,,,,,,1,0,1,0,,,,,,,,,0,32,32,0,,,0.1364377000136301,1837.078954400029,0.14390500006265938,0.0007840999169275165,0.0007840999169275165,1847.8348490999779,1847.8348490999779,0.0097161999437958,-113.0,-168.0,1,0,0,3.04679519997444,'click_1',1.3599987141788006e-05,1850.8823627000675,0.008858699933625758,,0.0022508999099954963,0.0022508999099954963,1851.3849709000206,1851.3849709000206,1851.3849709000206,0.011513599893078208,-121.0,-75.0,1,0,0,0.904646800016053,'click_2',1.4699995517730713e-05,0.008958299993537366,,,14,001,control,22,m,16,1,ale_ila,2024-04-05_10h15.59.193,CPO_EEG,2022.2.1,99.62590480161536,
stimoli/02.subtle/JF2_Happiness.mp4,happy,subtle,femmina,6,9,1646,926,14,,,,,,,,,,,,,,,,,1,0,1,0,,,,,,,,,0,33,33,13,,,0.1371288999216631,1853.9255821000552,0.1444027000106871,0.0008053999627009034,0.0008053999627009034,1863.3539895000868,1863.3539895000868,0.009660299983806908,152.0,21.0,1,0,0,6.4856397999683395,'click_1',1.309998333454132e-05,1869.8402802000055,0.008636899990960956,,0.0022827000357210636,0.0022827000357210636,1870.3430276999716,1870.3430276999716,1870.3430276999716,0.0113936000270769,114.0,75.0,1,0,0,1.2467974999453872,'click_2',1.279998105019331e-05,0.008776500006206334,,,14,001,control,22,m,16,1,ale_ila,2024-04-05_10h15.59.193,CPO_EEG,2022.2.1,99.62590480161536,
stimoli/02.subtle/JM2_Neutral.mp4,neutral,subtle,maschio,8,10,1646,926,28,,,,,,,,,,,,,,,,,1,0,1,0,,,,,,,,,0,34,34,27,,,0.13072600006125867,1873.2194624000695,0.13794420007616282,0.000685199978761375,0.000685199978761375,1884.1721818000078,1884.1721818000078,0.009686600067652762,-132.0,-20.0,1,0,0,1.2767859000014141,'click_1',1.27000967040658e-05,1885.449803100084,0.009067700011655688,,0.002753300010226667,0.002753300010226667,1885.9527938000392,1885.9527938000392,1885.9527938000392,0.01207690010778606,-122.0,-21.0,1,0,0,1.0855121000204235,'click_2',1.3499986380338669e-05,0.00874010007828474,,,14,001,control,22,m,16,1,ale_ila,2024-04-05_10h15.59.193,CPO_EEG,2022.2.1,99.62590480161536,
stimoli/02.subtle/JF1_Anger.mp4,angry,subtle,femmina,5,10,1646,926,5,,,,,,,,,,,,,,,,,1,0,1,0,,,,,,,,,0,35,35,4,,,0.13675429997965693,1888.6739241000032,0.14413000002969056,0.0008194000693038106,0.0008194000693038106,1899.4298196000746,1899.4298196000746,0.009675499983131886,-81.0,-119.0,1,0,0,1.537849900079891,'click_1',1.3199984095990658e-05,1900.9685243000276,0.008949999930337071,,0.0024674999294802547,0.0024674999294802547,1901.4712578000035,1901.4712578000035,1901.4712578000035,0.011707999976351857,-18.0,93.0,1,0,0,1.065476099960506,'click_2',1.3899989426136017e-05,0.009035900002345443,,,14,001,control,22,m,16,1,ale_ila,2024-04-05_10h15.59.193,CPO_EEG,2022.2.1,99.62590480161536,
stimoli/01.full/F01-Joy-Face Forward.mp4,happy,full,femmina,1,6,720,576,41,,,,,,,,,,,,,,,,,1,0,1,0,,,,,,,,,0,36,36,40,,,0.134483200032264,1904.1702233999968,0.1419395999982953,0.0007714000530540943,0.0007714000530540943,1910.121918000048,1910.121918000048,0.009697700035758317,123.0,73.0,1,0,0,1.377582099987194,'click_1',1.6999896615743637e-05,1911.5000197000336,0.008624699898064137,,0.0020155999809503555,0.0020155999809503555,1912.0026642000303,1912.0026642000303,1912.0026642000303,0.01127179991453886,104.0,-26.0,1,0,0,0.8546643001027405,'click_2',1.3499986380338669e-05,0.008814099943265319,,,14,001,control,22,m,16,1,ale_ila,2024-04-05_10h15.59.193,CPO_EEG,2022.2.1,99.62590480161536,
stimoli/01.full/M03-Surprise-Face Forward.mp4,surprised,full,maschio,4,6,720,576,52,,,,,,,,,,,,,,,,,1,0,1,0,,,,,,,,,0,37,37,51,,,0.13468259992077947,1914.4911263000686,0.14223709993530065,0.0008328000549226999,0.0008328000549226999,1920.442717500031,1920.442717500031,0.00972840003669262,36.0,-135.0,1,0,0,1.508029600023292,'click_1',1.279998105019331e-05,1921.9514667000622,0.008790199994109571,,0.002249899902381003,0.002249899902381003,1922.4542035000632,1922.4542035000632,1922.4542035000632,0.011552799958735704,25.0,-129.0,1,0,0,1.3066720999777317,'click_2',1.2999982573091984e-05,0.009060000069439411,,,14,001,control,22,m,16,1,ale_ila,2024-04-05_10h15.59.193,CPO_EEG,2022.2.1,99.62590480161536,
stimoli/02.subtle/JF2_Neutral.mp4,neutral,subtle,femmina,6,9,1646,926,26,,,,,,,,,,,,,,,,,1,0,1,0,,,,,,,,,0,38,38,25,,,0.1382603000383824,1925.3977900000755,0.14547280000988394,0.0006605000235140324,0.0006605000235140324,1934.834961000015,1934.834961000015,0.009823600063100457,-81.0,117.0,1,0,0,1.598692699917592,'click_1',1.379998866468668e-05,1936.4341648999834,0.008901399909518659,,0.0026067999424412847,0.0026067999424412847,1936.9371537000407,1936.9371537000407,1936.9371537000407,0.012000499991700053,-79.0,119.0,1,0,0,1.749223200022243,'click_2',1.3899989426136017e-05,0.009104799944907427,,,14,001,control,22,m,16,1,ale_ila,2024-04-05_10h15.59.193,CPO_EEG,2022.2.1,99.62590480161536,
stimoli/01.full/M02-Fear-Face Forward.mp4,fear,full,maschio,3,6,720,576,31,,,,,,,,,,,,,,,,,1,0,1,0,,,,,,,,,0,39,39,30,,,0.13393759995233268,1940.3191281000618,0.14125280000735074,0.0008518000831827521,0.0008518000831827521,1946.2712226000149,1946.2712226000149,0.009817600017413497,-81.0,-126.0,1,0,0,3.830929199932143,'click_1',1.7900019884109497e-05,1950.1028025000123,0.008825200027786195,,0.0027534000109881163,0.0027534000109881163,1950.6058786000358,1950.6058786000358,1950.6058786000358,0.011941100005060434,18.0,-96.0,1,0,0,0.864349800045602,'click_2',1.300009898841381e-05,0.008665700093843043,,,14,001,control,22,m,16,1,ale_ila,2024-04-05_10h15.59.193,CPO_EEG,2022.2.1,99.62590480161536,
stimoli/01.full/F01-Surprise-Face Forward.mp4,surprised,full,femmina,1,6,720,576,49,,,,,,,,,,,,,,,,,1,0,1,0,,,,,,,,,0,40,40,48,,,0.13398510008119047,1953.103120099986,0.14123210008256137,0.0006715001072734594,0.0006715001072734594,1959.0559070999734,1959.0559070999734,0.00987800001166761,26.0,-149.0,1,0,0,2.4933608000865206,'click_1',1.3499986380338669e-05,1961.5496743000112,0.008766799932345748,,0.002427099971100688,0.002427099971100688,1962.0526268000249,1962.0526268000249,1962.0526268000249,0.011760299908928573,54.0,-75.0,1,0,0,0.7940412999596447,'click_2',1.379998866468668e-05,0.008874999941326678,,,14,001,control,22,m,16,1,ale_ila,2024-04-05_10h15.59.193,CPO_EEG,2022.2.1,99.62590480161536,
stimoli/01.full/F03-Disgust-Face Forward.mp4,disgusted,full,femmina,2,6,720,576,38,,,,,,,,,,,,,,,,,1,0,1,0,,,,,,,,,0,41,41,37,,,0.13390679995063692,1964.479477600078,0.14133429992944002,0.0006633999291807413,0.0006633999291807413,1970.4318061000668,1970.4318061000668,0.009876700001768768,-116.0,78.0,1,0,0,4.555854600039311,'click_1',1.3599987141788006e-05,1974.9880781000247,0.008728499989956617,,0.0023634000681340694,0.0023634000681340694,1975.490869399975,1975.490869399975,1975.490869399975,0.011522200074978173,-120.0,76.0,1,0,0,1.7494880000595003,'click_2',1.3699987903237343e-05,0.008735900046303868,,,14,001,control,22,m,16,1,ale_ila,2024-04-05_10h15.59.193,CPO_EEG,2022.2.1,99.62590480161536,
stimoli/02.subtle/JF2_Anger.mp4,angry,subtle,femmina,6,9,1646,926,6,,,,,,,,,,,,,,,,,1,0,1,0,,,,,,,,,0,42,42,5,,,0.13775240001268685,1978.8770266000647,0.14505140006076545,0.0007453999714925885,0.0007453999714925885,1988.3054537000135,1988.3054537000135,0.009863300016149879,-29.0,137.0,1,0,0,1.4074248999822885,'click_1',1.279998105019331e-05,1989.713407500065,0.008767799939960241,,0.002453999943099916,0.002453999943099916,1990.2163312999764,1990.2163312999764,1990.2163312999764,0.011696500005200505,-105.0,-20.0,1,0,0,4.917707499931566,'click_2',1.379998866468668e-05,0.008768299943767488,,,14,001,control,22,m,16,1,ale_ila,2024-04-05_10h15.59.193,CPO_EEG,2022.2.1,99.62590480161536,
stimoli/02.subtle/JM2_Sadness.mp4,sad,subtle,maschio,8,10,1646,926,20,,,,,,,,,,,,,,,,,1,0,1,0,,,,,,,,,0,43,43,19,,,0.135507500031963,1996.7678349000635,0.14231349993497133,0.000722200027666986,0.000722200027666986,2007.3261195999803,2007.3261195999803,0.009815500001423061,-31.0,-140.0,1,0,0,10.801104499958456,'click_1',1.309998333454132e-05,2018.1277691000141,0.008844099938869476,,0.002364999963901937,0.002364999963901937,2018.6308128000237,2018.6308128000237,2018.6308128000237,0.011912799905985594,-21.0,-142.0,1,0,0,2.664406399941072,'click_2',1.3699987903237343e-05,0.009078999981284142,,,14,001,control,22,m,16,1,ale_ila,2024-04-05_10h15.59.193,CPO_EEG,2022.2.1,99.62590480161536,
stimoli/01.full/M03-Neutral-Face Forward.mp4,neutral,full,maschio,4,6,720,576,56,,,,,,,,,,,,,,,,,1,0,1,0,,,,,,,,,0,44,44,55,,,0.13392490008845925,2022.927914400003,0.14147859998047352,0.0006715999916195869,0.0006715999916195869,2028.8824953000294,2028.8824953000294,0.009709500009194016,-4.0,0.0,1,0,0,0.8039025000762194,'click_1',1.4100107364356518e-05,2029.687078100047,0.008983800071291625,,0.002446300000883639,0.002446300000883639,2030.189711800078,2030.189711800078,2030.189711800078,0.011628400068730116,0.0,0.0,1,0,0,0.6030415999703109,'click_2',1.3199984095990658e-05,0.008729900000616908,,,14,001,control,22,m,16,1,ale_ila,2024-04-05_10h15.59.193,CPO_EEG,2022.2.1,99.62590480161536,
stimoli/01.full/M03-Disgust-Face Forward.mp4,disgusted,full,maschio,4,6,720,576,40,,,,,,,,,,,,,,,,,1,0,1,0,,,,,,,,,0,45,45,39,,,0.13342470000497997,2032.4251935000066,0.14077589998487383,0.0008207999635487795,0.0008207999635487795,2038.3769244999858,2038.3769244999858,0.009734899969771504,-164.0,120.0,1,0,0,1.1357361000264063,'click_1',1.309998333454132e-05,2039.5133944000117,0.008767600054852664,,0.0022851000539958477,0.0022851000539958477,2040.016179200029,2040.016179200029,2040.016179200029,0.01158749999012798,-67.0,119.0,1,0,0,0.8042114999843761,'click_2',1.2999982573091984e-05,0.00880359997972846,,,14,001,control,22,m,16,1,ale_ila,2024-04-05_10h15.59.193,CPO_EEG,2022.2.1,99.62590480161536,
stimoli/01.full/M02-Disgust-Face Forward.mp4,disgusted,full,maschio,3,6,720,576,39,,,,,,,,,,,,,,,,,1,0,1,0,,,,,,,,,0,46,46,38,,,0.13348359998781234,2042.45267899998,0.14070649992208928,0.0007741000736132264,0.0007741000736132264,2048.405584500055,2048.405584500055,0.009648000006563962,-170.0,114.0,1,0,0,1.1358637999510393,'click_1',1.3699987903237343e-05,2049.5422915000236,0.008990600006654859,,0.0025204999838024378,0.0025204999838024378,2050.045126100071,2050.045126100071,2050.045126100071,0.011840599938295782,-58.0,83.0,1,0,0,1.3274802999803796,'click_2',1.309998333454132e-05,0.008898900006897748,,,14,001,control,22,m,16,1,ale_ila,2024-04-05_10h15.59.193,CPO_EEG,2022.2.1,99.62590480161536,
stimoli/02.subtle/JM2_Happiness.mp4,happy,subtle,maschio,8,10,1646,926,16,,,,,,,,,,,,,,,,,1,0,1,0,,,,,,,,,0,47,47,15,,,0.13523440004792064,2053.0064525000053,0.1423986000008881,0.0008548999903723598,0.0008548999903723598,2063.5625513000414,2063.5625513000414,0.009697199915535748,-86.0,120.0,1,0,0,2.5236120000481606,'click_1',1.3699987903237343e-05,2066.0869609999936,0.008878700085915625,,0.002382200094871223,0.002382200094871223,2066.5897126999917,2066.5897126999917,2066.5897126999917,0.011653100023977458,-84.0,116.0,1,0,0,1.7291729000862688,'click_2',1.3599987141788006e-05,0.008978099911473691,,,14,001,control,22,m,16,1,ale_ila,2024-04-05_10h15.59.193,CPO_EEG,2022.2.1,99.62590480161536,
stimoli/02.subtle/JM2_Surprise.mp4,surprised,subtle,maschio,8,10,1646,926,24,,,,,,,,,,,,,,,,,1,0,1,0,,,,,,,,,0,48,48,23,,,0.13543629995547235,2069.953188000014,0.1427276999456808,0.0007264000596478581,0.0007264000596478581,2080.870639299974,2080.870639299974,0.009694800013676286,50.0,-193.0,1,0,0,1.3168405999895185,'click_1',1.309998333454132e-05,2082.1882517000195,0.008983699954114854,,0.0024363999255001545,0.0024363999255001545,2082.690943500027,2082.690943500027,2082.690943500027,0.01173119992017746,77.0,-112.0,1,0,0,0.8950424999929965,'click_2',1.3399985618889332e-05,0.008761800010688603,,,14,001,control,22,m,16,1,ale_ila,2024-04-05_10h15.59.193,CPO_EEG,2022.2.1,99.62590480161536,
stimoli/01.full/F01-Neutral-Face Forward.mp4,neutral,full,femmina,1,6,720,576,53,,,,,,,,,,,,,,,,,1,0,1,0,,,,,,,,,0,49,49,52,,,0.13385049998760223,2085.2188627000432,0.14130999997723848,0.0006701000966131687,0.0006701000966131687,2091.171977000078,2091.171977000078,0.009749300079420209,0.0,0.0,1,0,0,1.0554482000879943,'click_1',1.4199991710484028e-05,2092.2279468000634,0.008832200081087649,,0.002172500011511147,0.002172500011511147,2092.730698200059,2092.730698200059,2092.730698200059,0.011638800031505525,0.0,0.0,1,0,0,0.23087009997107089,'click_2',1.379998866468668e-05,0.009048799984157085,,,14,001,control,22,m,16,1,ale_ila,2024-04-05_10h15.59.193,CPO_EEG,2022.2.1,99.62590480161536,
stimoli/01.full/M03-Joy-Face Forward.mp4,happy,full,maschio,4,6,720,576,44,,,,,,,,,,,,,,,,,1,0,1,0,,,,,,,,,0,50,50,43,,,0.1332824999699369,2094.593636200065,0.14068139996379614,0.0005919000832363963,0.0005919000832363963,2100.5455539000686,2100.5455539000686,0.009855200070887804,126.0,75.0,1,0,0,3.3491424000822008,'click_1',1.309998333454132e-05,2103.8949404000305,0.00878419994842261,,0.0024007000029087067,0.0024007000029087067,2104.397938100039,2104.397938100039,2104.397938100039,0.01179230003617704,147.0,33.0,1,0,0,1.6084639999317005,'click_2',1.3599987141788006e-05,0.00894299999345094,,,14,001,control,22,m,16,1,ale_ila,2024-04-05_10h15.59.193,CPO_EEG,2022.2.1,99.62590480161536,
stimoli/02.subtle/JM2_Anger.mp4,angry,subtle,maschio,8,10,1646,926,8,,,,,,,,,,,,,,,,,1,0,1,0,,,,,,,,,0,51,51,7,,,0.13532639993354678,2107.6403402000433,0.1425304999575019,0.0007255999371409416,0.0007255999371409416,2118.548771600006,2118.548771600006,0.009875399991869926,-112.0,171.0,1,0,0,1.6988331000320613,'click_1',1.309998333454132e-05,2120.24822519999,0.008963199914433062,,0.002736800001002848,0.002736800001002848,2120.7512491000816,2120.7512491000816,2120.7512491000816,0.012009299942292273,-25.0,99.0,1,0,0,1.4982086999807507,'click_2',1.4299992471933365e-05,0.008827499928884208,,,14,001,control,22,m,16,1,ale_ila,2024-04-05_10h15.59.193,CPO_EEG,2022.2.1,99.62590480161536,
stimoli/01.full/M03-Anger-Face Forward.mp4,angry,full,maschio,4,6,720,576,36,,,,,,,,,,,,,,,,,1,0,1,0,,,,,,,,,0,52,52,35,,,0.13300229993183166,2123.8813271999825,0.14032569993287325,0.0006528999656438828,0.0006528999656438828,2129.832861999981,2129.832861999981,0.009743900038301945,-26.0,132.0,1,0,0,1.357412299956195,'click_1',1.3499986380338669e-05,2131.1907490000594,0.008792600012384355,,0.0025077000027522445,0.0025077000027522445,2131.6936942000175,2131.6936942000175,2131.6936942000175,0.011744300019927323,-18.0,-98.0,1,0,0,1.4380331001011655,'click_2',1.3899989426136017e-05,0.008787400089204311,,,14,001,control,22,m,16,1,ale_ila,2024-04-05_10h15.59.193,CPO_EEG,2022.2.1,99.62590480161536,
stimoli/02.subtle/JF2_Surprise.mp4,surprised,subtle,femmina,6,10,1646,926,22,,,,,,,,,,,,,,,,,1,0,1,0,,,,,,,,,0,53,53,21,,,0.1373811000958085,2134.767929899972,0.1446716000791639,0.0008270000107586384,0.0008270000107586384,2145.1214441000484,2145.1214441000484,0.009737899992614985,28.0,-144.0,1,0,0,3.8217059000162408,'click_1',1.3499986380338669e-05,2148.943772400031,0.008754399954341352,,0.0023105000145733356,0.0023105000145733356,2149.446550499997,2149.446550499997,2149.446550499997,0.011529600014910102,-100.0,24.0,1,0,0,0.7635409999638796,'click_2',1.3599987141788006e-05,0.009044500067830086,,,14,001,control,22,m,16,1,ale_ila,2024-04-05_10h15.59.193,CPO_EEG,2022.2.1,99.62590480161536,
stimoli/02.subtle/JF1_Happiness.mp4,happy,subtle,femmina,5,10,1646,926,13,,,,,,,,,,,,,,,,,1,0,1,0,,,,,,,,,0,54,54,12,,,0.13663780002389103,2151.8457585000433,0.144008900038898,0.0008690999820828438,0.0008690999820828438,2162.6017846000614,2162.6017846000614,0.009736699983477592,215.0,-45.0,1,0,0,1.6384909000480548,'click_1',1.4199991710484028e-05,2164.2413372000447,0.00911179999820888,,0.0026514000492170453,0.0026514000492170453,2164.744107100065,2164.744107100065,2164.744107100065,0.011913500027731061,201.0,31.0,1,0,0,1.0250376999611035,'click_2',1.3899989426136017e-05,0.009101300034672022,,,14,001,control,22,m,16,1,ale_ila,2024-04-05_10h15.59.193,CPO_EEG,2022.2.1,99.62590480161536,
stimoli/02.subtle/JM1_Fear.mp4,fear,subtle,maschio,7,10,1646,926,3,,,,,,,,,,,,,,,,,1,0,1,0,,,,,,,,,0,55,55,2,,,0.1344879000680521,2167.4024616000243,0.14179090003017336,0.000735200010240078,0.000735200010240078,2177.7586707000155,2177.7586707000155,0.009700000053271651,-94.0,-125.0,1,0,0,1.5784929000074044,'click_1',1.3199984095990658e-05,2179.337802199996,0.008776900009252131,,0.002387500018812716,0.002387500018812716,2179.8406760999933,2179.8406760999933,2179.8406760999933,0.011660699965432286,15.0,-98.0,1,0,0,1.206598800024949,'click_2',1.4699995517730713e-05,0.008812200045213103,,,14,001,control,22,m,16,1,ale_ila,2024-04-05_10h15.59.193,CPO_EEG,2022.2.1,99.62590480161536,
,,,,,,,,,,,,,,,,,,,,,,,,,1,0,1,0,,,,,,,,,,,,,,,,,,,,,,,,,,,,,,,,,,,,,,,,,,,,,,,,,,,14,001,control,22,m,16,1,ale_ila,2024-04-05_10h15.59.193,CPO_EEG,2022.2.1,99.62590480161536,
