file,file_emotion,file_emotion_level,file_gender,file_id,file_duration,size_w,size_h,trigger,loop_practice_full.thisRepN,loop_practice_full.thisTrialN,loop_practice_full.thisN,loop_practice_full.thisIndex,loop_istr_practice.thisRepN,loop_istr_practice.thisTrialN,loop_istr_practice.thisN,loop_istr_practice.thisIndex,tuto.thisRepN,tuto.thisTrialN,tuto.thisN,tuto.thisIndex,loop_practice.thisRepN,loop_practice.thisTrialN,loop_practice.thisN,loop_practice.thisIndex,exp_blocks.thisRepN,exp_blocks.thisTrialN,exp_blocks.thisN,exp_blocks.thisIndex,istr_1.thisRepN,istr_1.thisTrialN,istr_1.thisN,istr_1.thisIndex,istr_2.thisRepN,istr_2.thisTrialN,istr_2.thisN,istr_2.thisIndex,exp.thisRepN,exp.thisTrialN,exp.thisN,exp.thisIndex,img_tutorial.started,key_resp.started,p_port.started,mov_target.started,p_port.stopped,p_port_2.started,primary.started,img_primary_wheel.started,click_1.started,p_port_2.stopped,primary.x,primary.y,primary.leftButton,primary.midButton,primary.rightButton,primary.time,primary.clicked_name,p_port_4.started,txt_iwi.started,p_port_4.stopped,p_port_3.started,secondary.started,img_secondary_wheel.started,click_2.started,primary_pos.started,p_port_3.stopped,secondary.x,secondary.y,secondary.leftButton,secondary.midButton,secondary.rightButton,secondary.time,secondary.clicked_name,p_port_5.started,p_port_5.stopped,kb_end_practice.keys,kb_end_practice.rt,txt_iwi.stopped,participant,session,group,age,sex,education,practice,experimenter,date,expName,psychopyVersion,frameRate,
stimoli/03.practice/F04-Anger-Face Forward.mp4,anger,full,femmina,9,6,700,700,57,0,0,0,0,,,,,,,,,0,0,0,0,,,,,,,,,,,,,,,,,133.24576870002784,133.24576870002784,0.3738458000589162,147.60025519994088,0.3813020000234246,0.000699399970471859,0.000699399970471859,153.57115039997734,153.57115039997734,0.016443299944512546,-45.0,197.0,1,0,0,6.691308900015429,'click_1',3.0399998649954796e-05,160.26329609996174,0.015501799993216991,0.001295299967750907,0.001295299967750907,160.765085299965,160.765085299965,160.765085299965,0.017312000039964914,-82.0,120.0,1,0,0,12.998028200003318,'click_2',1.619989052414894e-05,0.015294099925085902,,,,15_ctrl,001,control,39,f,14,1,ari,2024-02-09_17h44.19.970,CPO_EEG,2022.2.1,58.53913251683247,
stimoli/03.practice/F04-Surprise-Face Forward.mp4,surprise,full,femmina,9,6,700,700,61,0,0,0,0,,,,,,,,,0,1,1,4,,,,,,,,,,,,,,,,,,,0.137699699960649,175.3931475999998,0.14496259996667504,0.0006972000701352954,0.0006972000701352954,181.56961979996413,181.56961979996413,0.016446400084532797,32.0,-205.0,1,0,0,3.78002629999537,'click_1',1.4199991710484028e-05,185.35040090000257,0.015664100064896047,0.0014463000698015094,0.0014463000698015094,185.852208300028,185.852208300028,185.852208300028,0.017508600023575127,32.0,-198.0,1,0,0,4.283299699891359,'click_2',1.6600009985268116e-05,0.014662200002931058,,,,15_ctrl,001,control,39,f,14,1,ari,2024-02-09_17h44.19.970,CPO_EEG,2022.2.1,58.53913251683247,
stimoli/03.practice/F04-Sadness-Face Forward.mp4,sadness,full,femmina,9,6,700,700,60,0,0,0,0,,,,,,,,,0,2,2,3,,,,,,,,,,,,,,,,,,,0.13564879994373769,191.76324440003373,0.14287779992446303,0.0007405000505968928,0.0007405000505968928,197.73907979996875,197.73907979996875,0.01643820002209395,-55.0,-211.0,1,0,0,3.3123549000592902,'click_1',1.4399993233382702e-05,201.05198620003648,0.015430300030857325,0.001415099948644638,0.001415099948644638,201.55379160004668,201.55379160004668,201.55379160004668,0.017266799928620458,-34.0,-200.0,1,0,0,1.4889586999779567,'click_2',1.3999990187585354e-05,0.015615799929946661,,,,15_ctrl,001,control,39,f,14,1,ari,2024-02-09_17h44.19.970,CPO_EEG,2022.2.1,58.53913251683247,
stimoli/03.practice/F04-Joy-Face Forward.mp4,joy,full,femmina,9,6,700,700,59,0,0,0,0,,,,,,,,,0,3,3,2,,,,,,,,,,,,,,,,,,,0.13496990001294762,204.66996400000062,0.14227690000552684,0.0007298999698832631,0.0007298999698832631,210.6471105000237,210.6471105000237,0.016498100012540817,187.0,119.0,1,0,0,12.314665599958971,'click_1',1.4599994756281376e-05,222.96248899993952,0.015689700026996434,0.00177950004581362,0.00177950004581362,223.46456580003724,223.46456580003724,223.46456580003724,0.01781160000246018,157.0,103.0,1,0,0,3.5966130999149755,'click_2',1.4399993233382702e-05,0.015616900054737926,,,,15_ctrl,001,control,39,f,14,1,ari,2024-02-09_17h44.19.970,CPO_EEG,2022.2.1,58.53913251683247,
stimoli/03.practice/F04-Neutral-Face Forward.mp4,neutral,full,femmina,9,6,700,700,62,0,0,0,0,,,,,,,,,0,4,4,5,,,,,,,,,,,,,,,,,,,0.13652659999206662,228.68990009999834,0.143933100043796,0.0006830999627709389,0.0006830999627709389,234.6655876999721,234.6655876999721,0.01645769993774593,-3.0,1.0,1,0,0,6.30593399994541,'click_1',1.3999990187585354e-05,240.97201120003592,0.015416400041431189,0.0013561999658122659,0.0013561999658122659,241.47394719999284,241.47394719999284,241.47394719999284,0.017349799978546798,0.0,0.0,1,0,0,1.9569406000664458,'click_2',1.4699995517730713e-05,0.015390900080092251,,,,15_ctrl,001,control,39,f,14,1,ari,2024-02-09_17h44.19.970,CPO_EEG,2022.2.1,58.53913251683247,
stimoli/03.practice/F04-Disgust-Face Forward.mp4,disgust,full,femmina,9,6,700,700,58,0,0,0,0,,,,,,,,,0,5,5,1,,,,,,,,,,,,,,,,,,,0.136852000025101,245.05987869994715,0.14415539999026805,0.0007224999135360122,0.0007224999135360122,251.036192700034,251.036192700034,0.016474399948492646,-162.0,119.0,1,0,0,3.34484519995749,'click_1',1.3899989426136017e-05,254.3815578999929,0.015468599973246455,0.001550300046801567,0.001550300046801567,254.88357529998757,254.88357529998757,254.88357529998757,0.017524900031276047,-70.0,120.0,1,0,0,2.509124999982305,'click_2',1.4899997040629387e-05,0.015500400098972023,,,,15_ctrl,001,control,39,f,14,1,ari,2024-02-09_17h44.19.970,CPO_EEG,2022.2.1,58.53913251683247,
,,,,,,,,,0,0,0,0,,,,,,,,,,,,,,,,,,,,,,,,,,,,,,,,,,,,,,,,,,,,,,,,,,,,,,,,,,,,,,,,n,14.152560799964704,,15_ctrl,001,control,39,f,14,1,ari,2024-02-09_17h44.19.970,CPO_EEG,2022.2.1,58.53913251683247,
,,,,,,,,,,,,,,,,,,,,,,,,,0,0,0,0,0,0,0,0,,,,,,,,,,,,,,,,,,,,,,,,,,,,,,,,,,,,,,,,,,,,,,,15_ctrl,001,control,39,f,14,1,ari,2024-02-09_17h44.19.970,CPO_EEG,2022.2.1,58.53913251683247,
stimoli/02.subtle/JF2_Fear.mp4,fear,subtle,femmina,6,10,1646,926,2,,,,,,,,,,,,,,,,,0,0,0,0,,,,,,,,,0,0,0,1,,,0.1436747000552714,279.5233892999822,0.15089380007702857,0.0007538999198004603,0.0007538999198004603,289.8963353999425,289.8963353999425,0.016306999954394996,3.0,4.0,1,0,0,8.196615900029428,'click_1',1.4099990949034691e-05,298.0934050999349,0.014849700033664703,0.0008838999783620238,0.0008838999783620238,298.59529730002396,298.59529730002396,298.59529730002396,0.016767699969932437,0.0,0.0,1,0,0,2.5757912999251857,'click_2',1.4099990949034691e-05,0.015239499974995852,,,,15_ctrl,001,control,39,f,14,1,ari,2024-02-09_17h44.19.970,CPO_EEG,2022.2.1,58.53913251683247,
stimoli/01.full/M02-Sadness-Face Forward.mp4,sad,full,maschio,3,6,720,576,47,,,,,,,,,,,,,,,,,0,0,0,0,,,,,,,,,0,1,1,46,,,0.1373589999275282,302.80104269995354,0.14469789993017912,0.0006331999320536852,0.0006331999320536852,308.4251255999552,308.4251255999552,0.01649029995314777,-47.0,-192.0,1,0,0,5.804783900035545,'click_1',1.4299992471933365e-05,314.23054419993423,0.015655600000172853,0.001554999966174364,0.001554999966174364,314.73240420001093,314.73240420001093,314.73240420001093,0.017539599910378456,-87.0,-117.0,1,0,0,8.314652299974114,'click_2',1.5600002370774746e-05,0.015370499924756587,,,,15_ctrl,001,control,39,f,14,1,ari,2024-02-09_17h44.19.970,CPO_EEG,2022.2.1,58.53913251683247,
stimoli/01.full/F03-Anger-Face Forward.mp4,angry,full,femmina,2,6,720,576,34,,,,,,,,,,,,,,,,,0,0,0,0,,,,,,,,,0,2,2,33,,,0.1363023999147117,324.67552960000467,0.14359009999316186,0.0006918000290170312,0.0006918000290170312,330.65175740001723,330.65175740001723,0.01646090007852763,-24.0,150.0,1,0,0,2.609257399919443,'click_1',1.379998866468668e-05,333.2615525999572,0.01544270000886172,0.001289700041525066,0.001289700041525066,333.7633484000107,333.7633484000107,333.7633484000107,0.017282300046645105,-112.0,82.0,1,0,0,3.830656999954954,'click_2',1.3999990187585354e-05,0.015563799999654293,,,,15_ctrl,001,control,39,f,14,1,ari,2024-02-09_17h44.19.970,CPO_EEG,2022.2.1,58.53913251683247,
stimoli/01.full/F01-Joy-Face Forward.mp4,happy,full,femmina,1,6,720,576,41,,,,,,,,,,,,,,,,,0,0,0,0,,,,,,,,,0,3,3,40,,,0.13644289993681014,339.22250969999004,0.14372369996272027,0.0007534000324085355,0.0007534000324085355,345.1991134999553,345.1991134999553,0.01651560002937913,194.0,38.0,1,0,0,4.215030100080185,'click_1',1.3399985618889332e-05,349.415070499992,0.015839400002732873,0.0015156000154092908,0.0015156000154092908,349.91675340000074,349.91675340000074,349.91675340000074,0.017524200025945902,149.0,-34.0,1,0,0,6.306804100051522,'click_2',1.4299992471933365e-05,0.015567800030112267,,,,15_ctrl,001,control,39,f,14,1,ari,2024-02-09_17h44.19.970,CPO_EEG,2022.2.1,58.53913251683247,
stimoli/02.subtle/JF1_Surprise.mp4,surprised,subtle,femmina,5,10,1646,926,21,,,,,,,,,,,,,,,,,0,0,0,0,,,,,,,,,0,4,4,20,,,0.1396019000094384,357.85531829996035,0.14690349996089935,0.0007068000268191099,0.0007068000268191099,368.62992029997986,368.62992029997986,0.016455600038170815,42.0,-203.0,1,0,0,3.2445456000277773,'click_1',1.4899997040629387e-05,371.87509740004316,0.01554230006877333,0.0014702000189572573,0.0014702000189572573,372.37692429998424,372.37692429998424,372.37692429998424,0.017413800000213087,41.0,-196.0,1,0,0,4.499977599945851,'click_2',1.3599987141788006e-05,0.015526799950748682,,,,15_ctrl,001,control,39,f,14,1,ari,2024-02-09_17h44.19.970,CPO_EEG,2022.2.1,58.53913251683247,
stimoli/01.full/M03-Anger-Face Forward.mp4,angry,full,maschio,4,6,720,576,36,,,,,,,,,,,,,,,,,0,0,0,0,,,,,,,,,0,5,5,35,,,0.13693709997460246,378.50624449993484,0.14437429991085082,0.00072160002309829,0.00072160002309829,384.4813226000406,384.4813226000406,0.0163801999296993,-24.0,147.0,1,0,0,2.7096481999615207,'click_1',1.4699995517730713e-05,387.1916824999498,0.015501199988648295,0.0013541000662371516,0.0013541000662371516,387.6934782000026,387.6934782000026,387.6934782000026,0.017335499986074865,-28.0,140.0,1,0,0,4.4159251999808475,'click_2',1.71000137925148e-05,0.015705600031651556,,,,15_ctrl,001,control,39,f,14,1,ari,2024-02-09_17h44.19.970,CPO_EEG,2022.2.1,58.53913251683247,
stimoli/01.full/M02-Surprise-Face Forward.mp4,surprised,full,maschio,3,6,720,576,51,,,,,,,,,,,,,,,,,0,0,0,0,,,,,,,,,0,6,6,50,,,0.13604270003270358,393.7375171999447,0.1432805999647826,0.0007533000316470861,0.0007533000316470861,399.71462340001017,399.71462340001017,0.016372499987483025,48.0,-205.0,1,0,0,3.3781069999095052,'click_1',1.5199999324977398e-05,403.093603999936,0.01551840000320226,0.0015858999686315656,0.0015858999686315656,403.59572340000886,403.59572340000886,403.59572340000886,0.017644900013692677,37.0,-196.0,1,0,0,6.858249000040814,'click_2',1.3699987903237343e-05,0.015668699983507395,,,,15_ctrl,001,control,39,f,14,1,ari,2024-02-09_17h44.19.970,CPO_EEG,2022.2.1,58.53913251683247,
stimoli/02.subtle/JF1_Sadness.mp4,sad,subtle,femmina,5,10,1646,926,17,,,,,,,,,,,,,,,,,0,0,0,0,,,,,,,,,0,7,7,16,,,0.13887300004716963,412.08489439997356,0.14610030001495034,0.0007415999425575137,0.0007415999425575137,422.859483200009,422.859483200009,0.01656279992312193,-37.0,-188.0,1,0,0,5.336688200011849,'click_1',1.3599987141788006e-05,428.196710200049,0.015553600038401783,0.0014396000187844038,0.0014396000187844038,428.69852179999,428.69852179999,428.69852179999,0.01735880004707724,-42.0,-195.0,1,0,0,6.206589399953373,'click_2',1.4199991710484028e-05,0.015396400005556643,,,,15_ctrl,001,control,39,f,14,1,ari,2024-02-09_17h44.19.970,CPO_EEG,2022.2.1,58.53913251683247,
stimoli/01.full/M03-Joy-Face Forward.mp4,happy,full,maschio,4,6,720,576,44,,,,,,,,,,,,,,,,,0,0,0,0,,,,,,,,,0,8,8,43,,,0.136341999983415,436.5336249000393,0.14361040003132075,0.000714799971319735,0.000714799971319735,442.50911610003095,442.50911610003095,0.016489600064232945,86.0,127.0,1,0,0,10.826332099968567,'click_1',1.3999990187585354e-05,453.33599009993486,0.015490600024349988,0.001647600089199841,0.001647600089199841,453.8381314999424,453.8381314999424,453.8381314999424,0.017643700004555285,125.0,-22.0,1,0,0,4.734329700004309,'click_2',1.379998866468668e-05,0.015445100027136505,,,,15_ctrl,001,control,39,f,14,1,ari,2024-02-09_17h44.19.970,CPO_EEG,2022.2.1,58.53913251683247,
stimoli/02.subtle/JM2_Disgust.mp4,disgusted,subtle,maschio,8,10,1646,926,12,,,,,,,,,,,,,,,,,0,0,0,0,,,,,,,,,0,9,9,11,,,0.13901149993762374,460.20347259996925,0.14620019996073097,0.0007194000063464046,0.0007194000063464046,470.77773950004485,470.77773950004485,0.016388899995945394,-106.0,83.0,1,0,0,2.7600506000453606,'click_1',1.3999990187585354e-05,473.53834410000127,0.015399600029923022,0.0013122999807819724,0.0013122999807819724,474.04007220000494,474.04007220000494,474.04007220000494,0.01713200006633997,-54.0,87.0,1,0,0,3.4287833999842405,'click_2',1.379998866468668e-05,0.015518100000917912,,,,15_ctrl,001,control,39,f,14,1,ari,2024-02-09_17h44.19.970,CPO_EEG,2022.2.1,58.53913251683247,
stimoli/02.subtle/JM1_Anger.mp4,angry,subtle,maschio,7,10,1646,926,7,,,,,,,,,,,,,,,,,0,0,0,0,,,,,,,,,0,10,10,6,,,0.1377618999686092,479.09889569994994,0.1450561999808997,0.000682600075379014,0.000682600075379014,489.47306929994375,489.47306929994375,0.01645500003360212,-29.0,143.0,1,0,0,2.692570500075817,'click_1',1.4300108887255192e-05,492.16612259997055,0.015485000098124146,0.0015536000719293952,0.0015536000719293952,492.66810390003957,492.66810390003957,492.66810390003957,0.017495900043286383,-76.0,121.0,1,0,0,2.4590814999537542,'click_2',1.3899989426136017e-05,0.015567499911412597,,,,15_ctrl,001,control,39,f,14,1,ari,2024-02-09_17h44.19.970,CPO_EEG,2022.2.1,58.53913251683247,
stimoli/02.subtle/JF1_Happiness.mp4,happy,subtle,femmina,5,10,1646,926,13,,,,,,,,,,,,,,,,,0,0,0,0,,,,,,,,,0,11,11,12,,,0.13909499999135733,496.7581698000431,0.14608349988702685,0.0007321999873965979,0.0007321999873965979,507.5331349000335,507.5331349000335,0.016375700011849403,204.0,42.0,1,0,0,3.8474275999469683,'click_1',1.4699995517730713e-05,511.38117639999837,0.015495599946007133,0.0011857999488711357,0.0011857999488711357,511.8828459000215,511.8828459000215,511.8828459000215,0.01717909995932132,177.0,108.0,1,0,0,1.9073443999513984,'click_2',1.3899989426136017e-05,0.01556870003696531,,,,15_ctrl,001,control,39,f,14,1,ari,2024-02-09_17h44.19.970,CPO_EEG,2022.2.1,58.53913251683247,
stimoli/01.full/M03-Sadness-Face Forward.mp4,sad,full,maschio,4,6,720,576,48,,,,,,,,,,,,,,,,,0,0,0,0,,,,,,,,,0,12,12,47,,,0.13627030001953244,515.4186453999719,0.14365680003538728,0.0007112000603228807,0.0007112000603228807,521.3949198999908,521.3949198999908,0.01643280009739101,-36.0,-204.0,1,0,0,2.6927438999991864,'click_1',1.4199991710484028e-05,524.0882979000453,0.015563399996608496,0.001456200028769672,0.001456200028769672,524.5901249999879,524.5901249999879,524.5901249999879,0.017405399936251342,-44.0,-208.0,1,0,0,1.371555000077933,'click_2',1.3999990187585354e-05,0.015628699911758304,,,,15_ctrl,001,control,39,f,14,1,ari,2024-02-09_17h44.19.970,CPO_EEG,2022.2.1,58.53913251683247,
stimoli/01.full/M02-Neutral-Face Forward.mp4,neutral,full,maschio,3,6,720,576,55,,,,,,,,,,,,,,,,,0,0,0,0,,,,,,,,,0,13,13,54,,,0.13717739994172007,527.5911031999858,0.14451779995579273,0.0007335999980568886,0.0007335999980568886,533.5673541999422,533.5673541999422,0.01642649993300438,0.0,0.0,1,0,0,1.0865571000613272,'click_1',1.3299984857439995e-05,534.6544844999444,0.01543969998601824,0.0015417999820783734,0.0015417999820783734,535.1564383000368,535.1564383000368,535.1564383000368,0.01742189994547516,0.0,0.0,1,0,0,0.6355092000449076,'click_2',1.3399985618889332e-05,0.015440499992109835,,,,15_ctrl,001,control,39,f,14,1,ari,2024-02-09_17h44.19.970,CPO_EEG,2022.2.1,58.53913251683247,
stimoli/02.subtle/JM2_Neutral.mp4,neutral,subtle,maschio,8,10,1646,926,28,,,,,,,,,,,,,,,,,0,0,0,0,,,,,,,,,0,14,14,27,,,0.13888390001375228,537.422766200034,0.14583159994799644,0.0007411999395117164,0.0007411999395117164,548.3653160999529,548.3653160999529,0.01647099992260337,2.0,0.0,1,0,0,1.1537672999547794,'click_1',1.4399993233382702e-05,549.5196231999435,0.015446499921381474,0.0012131999246776104,0.0012131999246776104,550.021303400048,550.021303400048,550.021303400048,0.017106999992392957,0.0,0.0,1,0,0,0.8697530999779701,'click_2',1.3499986380338669e-05,0.01553159998729825,,,,15_ctrl,001,control,39,f,14,1,ari,2024-02-09_17h44.19.970,CPO_EEG,2022.2.1,58.53913251683247,
stimoli/01.full/F03-Fear-Face Forward.mp4,fear,full,femmina,2,6,720,576,30,,,,,,,,,,,,,,,,,0,0,0,0,,,,,,,,,0,15,15,29,,,0.1356408999999985,552.5189764000243,0.1429960000095889,0.0006280000088736415,0.0006280000088736415,558.4944549000356,558.4944549000356,0.016469100024551153,-129.0,-162.0,1,0,0,2.492339999997057,'click_1',1.3699987903237343e-05,560.987376700039,0.015610900009050965,0.0015656999312341213,0.0015656999312341213,561.4892930999631,561.4892930999631,561.4892930999631,0.017535499995574355,30.0,-149.0,1,0,0,5.169377599959262,'click_2',1.3699987903237343e-05,0.015434899949468672,,,,15_ctrl,001,control,39,f,14,1,ari,2024-02-09_17h44.19.970,CPO_EEG,2022.2.1,58.53913251683247,
stimoli/01.full/F03-Neutral-Face Forward.mp4,neutral,full,femmina,2,6,720,576,54,,,,,,,,,,,,,,,,,0,0,0,0,,,,,,,,,0,16,16,53,,,0.1368058999069035,568.2876522999723,0.1441148999147117,0.0007187000010162592,0.0007187000010162592,574.2635351000354,574.2635351000354,0.016491200076416135,0.0,0.0,1,0,0,5.68797990004532,'click_1',1.4099990949034691e-05,579.9513474999694,0.014845099998638034,0.0009456999832764268,0.0009456999832764268,580.4531436000252,580.4531436000252,580.4531436000252,0.016697400016710162,0.0,0.0,1,0,0,0.4340496000368148,'click_2',1.3500102795660496e-05,0.01566370006185025,,,580.4531436000252,15_ctrl,001,control,39,f,14,1,ari,2024-02-09_17h44.19.970,CPO_EEG,2022.2.1,58.53913251683247,
stimoli/01.full/M02-Fear-Face Forward.mp4,fear,full,maschio,3,6,720,576,31,,,,,,,,,,,,,,,,,0,0,0,0,,,,,,,,,0,17,17,30,,,0.1362708000233397,582.5158892000327,0.14361510006710887,0.0007360000163316727,0.0007360000163316727,588.4924214000348,588.4924214000348,0.016569299972616136,-120.0,-165.0,1,0,0,3.413114199996926,'click_1',1.4199991710484028e-05,591.9060740999412,0.015534400008618832,0.0015972999390214682,0.0015972999390214682,592.4080165999476,592.4080165999476,592.4080165999476,0.017523499904200435,26.0,-143.0,1,0,0,4.282643500017002,'click_2',1.4299992471933365e-05,0.015559500083327293,,,,15_ctrl,001,control,39,f,14,1,ari,2024-02-09_17h44.19.970,CPO_EEG,2022.2.1,58.53913251683247,
stimoli/01.full/F03-Disgust-Face Forward.mp4,disgusted,full,femmina,2,6,720,576,38,,,,,,,,,,,,,,,,,0,0,0,0,,,,,,,,,0,18,18,37,,,0.13702790008392185,598.3198746000417,0.1443053000839427,0.0006811999483034015,0.0006811999483034015,604.2970141000114,604.2970141000114,0.016433099983260036,-157.0,114.0,1,0,0,1.5885207999963313,'click_1',1.5099998563528061e-05,605.8861973000458,0.015651199966669083,0.0017091999761760235,0.0017091999761760235,606.3881036000093,606.3881036000093,606.3881036000093,0.01756579999346286,-179.0,115.0,1,0,0,1.2377688999986276,'click_2',1.379998866468668e-05,0.015390000073239207,,,,15_ctrl,001,control,39,f,14,1,ari,2024-02-09_17h44.19.970,CPO_EEG,2022.2.1,58.53913251683247,
stimoli/01.full/F01-Surprise-Face Forward.mp4,surprised,full,femmina,1,6,720,576,49,,,,,,,,,,,,,,,,,0,0,0,0,,,,,,,,,0,19,19,48,,,0.13648169999942183,609.2546434999676,0.1438101000385359,0.000734600005671382,0.000734600005671382,615.2317038000328,615.2317038000328,0.01651830004993826,45.0,-207.0,1,0,0,1.7563260999741033,'click_1',1.3899989426136017e-05,616.9885809000116,0.015558000071905553,0.0014377000043168664,0.0014377000043168664,617.4903833999997,617.4903833999997,617.4903833999997,0.017362300073727965,31.0,-212.0,1,0,0,3.8307047999696806,'click_2',1.379998866468668e-05,0.015472800005227327,,,,15_ctrl,001,control,39,f,14,1,ari,2024-02-09_17h44.19.970,CPO_EEG,2022.2.1,58.53913251683247,
stimoli/01.full/F01-Disgust-Face Forward.mp4,disgusted,full,femmina,1,6,720,576,37,,,,,,,,,,,,,,,,,0,0,0,0,,,,,,,,,0,20,20,36,,,0.13519480009563267,622.9485459999414,0.1424608000088483,0.0007262000581249595,0.0007262000581249595,628.9254226000048,628.9254226000048,0.016538799973204732,-159.0,113.0,1,0,0,2.040529299993068,'click_1',1.4099990949034691e-05,630.966593899997,0.015649599954485893,0.001867900020442903,0.001867900020442903,631.4686866999837,631.4686866999837,631.4686866999837,0.017744199954904616,-74.0,119.0,1,0,0,1.4214794000145048,'click_2',1.4499993994832039e-05,0.015635799965821207,,,,15_ctrl,001,control,39,f,14,1,ari,2024-02-09_17h44.19.970,CPO_EEG,2022.2.1,58.53913251683247,
stimoli/02.subtle/JM2_Sadness.mp4,sad,subtle,maschio,8,10,1646,926,20,,,,,,,,,,,,,,,,,0,0,0,0,,,,,,,,,0,21,21,19,,,0.13836139999330044,634.5207205000333,0.14561200002208352,0.0006831999635323882,0.0006831999635323882,645.0948898999486,645.0948898999486,0.01652599999215454,-41.0,-205.0,1,0,0,4.884845599997789,'click_1',1.3899989426136017e-05,649.9802257999545,0.015444799908436835,0.001441999920643866,0.001441999920643866,650.4822983000195,650.4822983000195,650.4822983000195,0.01754179992713034,-122.0,-82.0,1,0,0,1.1211915999883786,'click_2',1.3999990187585354e-05,0.01535069989040494,,,,15_ctrl,001,control,39,f,14,1,ari,2024-02-09_17h44.19.970,CPO_EEG,2022.2.1,58.53913251683247,
stimoli/02.subtle/JM2_Anger.mp4,angry,subtle,maschio,8,10,1646,926,8,,,,,,,,,,,,,,,,,0,0,0,0,,,,,,,,,0,22,22,7,,,0.1374329999089241,653.2329481999623,0.14471619995310903,0.0007084999233484268,0.0007084999233484268,664.1759545999812,664.1759545999812,0.016402299981564283,-35.0,141.0,1,0,0,7.059204000048339,'click_1',1.3699987903237343e-05,671.2358053999487,0.015544000081717968,0.0012250000145286322,0.0012250000145286322,671.7374707999406,671.7374707999406,671.7374707999406,0.01721479999832809,-77.0,113.0,1,0,0,1.0873126999940723,'click_2',1.379998866468668e-05,0.015546899987384677,,,,15_ctrl,001,control,39,f,14,1,ari,2024-02-09_17h44.19.970,CPO_EEG,2022.2.1,58.53913251683247,
stimoli/02.subtle/JF2_Happiness.mp4,happy,subtle,femmina,6,9,1646,926,14,,,,,,,,,,,,,,,,,0,0,0,0,,,,,,,,,0,23,23,13,,,0.14396529993973672,674.4609051999869,0.15122209989931434,0.0007450999692082405,0.0007450999692082405,683.9258855000371,683.9258855000371,0.016502999933436513,159.0,109.0,1,0,0,1.7559353999095038,'click_1',1.3999990187585354e-05,685.6823636000045,0.015494799939915538,0.0013708999613299966,0.0013708999613299966,686.1842345000478,686.1842345000478,686.1842345000478,0.017418099916540086,192.0,-48.0,1,0,0,1.7396226999117061,'click_2',1.4599994756281376e-05,0.015528199961408973,,,,15_ctrl,001,control,39,f,14,1,ari,2024-02-09_17h44.19.970,CPO_EEG,2022.2.1,58.53913251683247,
stimoli/02.subtle/JF1_Fear.mp4,fear,subtle,femmina,5,10,1646,926,1,,,,,,,,,,,,,,,,,0,0,0,0,,,,,,,,,0,24,24,0,,,0.13927469996269792,689.5550727000227,0.14642759994603693,0.0006787000456824899,0.0006787000456824899,700.3296449000482,700.3296449000482,0.01654810004401952,-80.0,-119.0,1,0,0,3.4140549999428913,'click_1',1.379998866468668e-05,703.7430244999705,0.014466700027696788,0.0005882999394088984,0.0005882999394088984,704.2448600999778,704.2448600999778,704.2448600999778,0.016317199915647507,-114.0,-84.0,1,0,0,3.647112999926321,'click_2',1.4199991710484028e-05,0.015406399965286255,,,704.2448600999778,15_ctrl,001,control,39,f,14,1,ari,2024-02-09_17h44.19.970,CPO_EEG,2022.2.1,58.53913251683247,
stimoli/01.full/F01-Neutral-Face Forward.mp4,neutral,full,femmina,1,6,720,576,53,,,,,,,,,,,,,,,,,0,0,0,0,,,,,,,,,0,25,25,52,,,0.13488859997596592,709.5192695000442,0.14221600000746548,0.0007387000368908048,0.0007387000368908048,715.4968978000106,715.4968978000106,0.016507199965417385,0.0,0.0,1,0,0,0.8192917000269517,'click_1',1.7200014553964138e-05,716.3166701999726,0.015443000011146069,0.001089500030502677,0.001089500030502677,716.8182131999638,716.8182131999638,716.8182131999638,0.01698529999703169,0.0,0.0,1,0,0,0.5684135999763384,'click_2',1.3699987903237343e-05,0.015695600071921945,,,,15_ctrl,001,control,39,f,14,1,ari,2024-02-09_17h44.19.970,CPO_EEG,2022.2.1,58.53913251683247,
stimoli/02.subtle/JF1_Disgust.mp4,disgusted,subtle,femmina,5,10,1646,926,9,,,,,,,,,,,,,,,,,0,0,0,0,,,,,,,,,0,26,26,8,,,0.13952010008506477,719.0184209999861,0.146869600052014,0.000734600005671382,0.000734600005671382,729.7934426999418,729.7934426999418,0.016498400014825165,-46.0,-209.0,1,0,0,3.04435330000706,'click_1',2.9699993319809437e-05,732.8383823999902,0.015539900050498545,0.0012959000887349248,0.0012959000887349248,733.3399935000343,733.3399935000343,733.3399935000343,0.017128200037404895,-129.0,-28.0,1,0,0,1.304469900089316,'click_2',1.4999997802078724e-05,0.015713299973867834,,,,15_ctrl,001,control,39,f,14,1,ari,2024-02-09_17h44.19.970,CPO_EEG,2022.2.1,58.53913251683247,
stimoli/02.subtle/JM1_Neutral.mp4,neutral,subtle,maschio,7,10,1646,926,27,,,,,,,,,,,,,,,,,0,0,0,0,,,,,,,,,0,27,27,26,,,0.13688220002222806,736.2736838000128,0.14419160003308207,0.0006840999703854322,0.0006840999703854322,746.6495274000335,746.6495274000335,0.016692299977876246,-18.0,-99.0,1,0,0,3.128505300031975,'click_1',1.3999990187585354e-05,749.778528099996,0.015695499954745173,0.001595199923031032,0.001595199923031032,750.2804394999985,750.2804394999985,750.2804394999985,0.017605399945750833,2.0,0.0,1,0,0,1.7744299999903888,'click_2',1.379998866468668e-05,0.014503699960187078,,,,15_ctrl,001,control,39,f,14,1,ari,2024-02-09_17h44.19.970,CPO_EEG,2022.2.1,58.53913251683247,
stimoli/01.full/M03-Disgust-Face Forward.mp4,disgusted,full,maschio,4,6,720,576,40,,,,,,,,,,,,,,,,,0,0,0,0,,,,,,,,,0,28,28,39,,,0.13546419993508607,753.682409400004,0.14276519999839365,0.0007061000214889646,0.0007061000214889646,759.6578160999343,759.6578160999343,0.016369499964639544,-160.0,120.0,1,0,0,1.8065746000502259,'click_1',1.3699987903237343e-05,761.4651730000041,0.015634999959729612,0.0013261999702081084,0.0013261999702081084,761.9668852000032,761.9668852000032,761.9668852000032,0.017349099973216653,-171.0,117.0,1,0,0,1.1879286000039428,'click_2',1.7300015315413475e-05,0.015628700028173625,,,,15_ctrl,001,control,39,f,14,1,ari,2024-02-09_17h44.19.970,CPO_EEG,2022.2.1,58.53913251683247,
stimoli/02.subtle/JF2_Disgust.mp4,disgusted,subtle,femmina,6,10,1646,926,10,,,,,,,,,,,,,,,,,0,0,0,0,,,,,,,,,0,29,29,9,,,0.13985979999415576,764.7866743999766,0.1471040000906214,0.0007112000603228807,0.0007112000603228807,775.159478400019,775.159478400019,0.016545800026506186,-29.0,-210.0,1,0,0,2.3079065000638366,'click_1',1.3699987903237343e-05,777.4678633000003,0.015440499992109835,0.0015182000352069736,0.0015182000352069736,777.9698262000456,777.9698262000456,777.9698262000456,0.017461100011132658,-53.0,-184.0,1,0,0,4.90172480000183,'click_2',1.3299984857439995e-05,0.01554230006877333,,,,15_ctrl,001,control,39,f,14,1,ari,2024-02-09_17h44.19.970,CPO_EEG,2022.2.1,58.53913251683247,
stimoli/02.subtle/JF1_Anger.mp4,angry,subtle,femmina,5,10,1646,926,5,,,,,,,,,,,,,,,,,0,0,0,0,,,,,,,,,0,30,30,4,,,0.13850060000550002,784.5022205000278,0.14574190007988364,0.0006722999969497323,0.0006722999969497323,795.2779762999853,795.2779762999853,0.016388999996706843,-81.0,-120.0,1,0,0,1.8898997000651434,'click_1',1.3600103557109833e-05,797.1685359999537,0.015592800104059279,0.0020443000830709934,0.0020443000830709934,797.6708528000163,797.6708528000163,797.6708528000163,0.017903300002217293,-84.0,-119.0,1,0,0,4.616496800095774,'click_2',1.4399993233382702e-05,0.015585299930535257,,,,15_ctrl,001,control,39,f,14,1,ari,2024-02-09_17h44.19.970,CPO_EEG,2022.2.1,58.53913251683247,
stimoli/02.subtle/JF1_Neutral.mp4,neutral,subtle,femmina,5,10,1646,926,25,,,,,,,,,,,,,,,,,0,0,0,0,,,,,,,,,0,31,31,24,,,0.13853399991057813,803.9180999000091,0.14581629994791,0.0006540999747812748,0.0006540999747812748,814.6925626000157,814.6925626000157,0.016550099942833185,-10.0,1.0,1,0,0,9.520074000000022,'click_1',1.3699987903237343e-05,824.2130775999976,0.015539499931037426,0.0015756998909637332,0.0015756998909637332,824.7149968999438,824.7149968999438,824.7149968999438,0.01745759998448193,0.0,0.0,1,0,0,0.3171379000414163,'click_2',1.379998866468668e-05,0.015535400016233325,,,,15_ctrl,001,control,39,f,14,1,ari,2024-02-09_17h44.19.970,CPO_EEG,2022.2.1,58.53913251683247,
stimoli/02.subtle/JF2_Anger.mp4,angry,subtle,femmina,6,9,1646,926,6,,,,,,,,,,,,,,,,,0,0,0,0,,,,,,,,,0,32,32,5,,,0.1389729999937117,826.6633503000485,0.14628649991936982,0.0006575000006705523,0.0006575000006705523,836.1158192999428,836.1158192999428,0.016464299988001585,-25.0,98.0,1,0,0,3.7300571999512613,'click_1',1.4499993994832039e-05,839.8465724999551,0.015727799967862666,0.0015966000501066446,0.0015966000501066446,840.3483360999962,840.3483360999962,840.3483360999962,0.017526500043459237,-18.0,99.0,1,0,0,1.8906226999824867,'click_2',1.3499986380338669e-05,0.015536300023086369,,,,15_ctrl,001,control,39,f,14,1,ari,2024-02-09_17h44.19.970,CPO_EEG,2022.2.1,58.53913251683247,
stimoli/02.subtle/JM1_Sadness.mp4,sad,subtle,maschio,7,10,1646,926,19,,,,,,,,,,,,,,,,,0,0,0,0,,,,,,,,,0,33,33,18,,,0.1365240999730304,843.8676825000439,0.14377730002161115,0.0007154999766498804,0.0007154999766498804,854.2438712000148,854.2438712000148,0.016466300003230572,-21.0,-137.0,1,0,0,4.885294699924998,'click_1',1.3599987141788006e-05,859.1296807000181,0.015460100024938583,0.0012010999489575624,0.0012010999489575624,859.6314584999345,859.6314584999345,859.6314584999345,0.017258199979551136,-25.0,-138.0,1,0,0,1.1208204000722617,'click_2',1.3999990187585354e-05,0.015601600054651499,,,,15_ctrl,001,control,39,f,14,1,ari,2024-02-09_17h44.19.970,CPO_EEG,2022.2.1,58.53913251683247,
stimoli/02.subtle/JM1_Surprise.mp4,surprised,subtle,maschio,7,10,1646,926,23,,,,,,,,,,,,,,,,,0,0,0,0,,,,,,,,,0,34,34,22,,,0.13593630003742874,862.3801135999383,0.14314230007585138,0.0007161999819800258,0.0007161999819800258,872.7552701999666,872.7552701999666,0.016289300052449107,91.0,-59.0,1,0,0,1.7391908999998122,'click_1',1.4399993233382702e-05,874.4951475999551,0.015330000082030892,0.0011665000347420573,0.0011665000347420573,874.9969345999416,874.9969345999416,874.9969345999416,0.017149000079371035,87.0,-60.0,1,0,0,1.020099199959077,'click_2',1.4499993994832039e-05,0.015599299920722842,,,,15_ctrl,001,control,39,f,14,1,ari,2024-02-09_17h44.19.970,CPO_EEG,2022.2.1,58.53913251683247,
stimoli/01.full/M03-Neutral-Face Forward.mp4,neutral,full,maschio,4,6,720,576,56,,,,,,,,,,,,,,,,,0,0,0,0,,,,,,,,,0,35,35,55,,,0.1372552999528125,877.6464871999342,0.1446382999420166,0.0007090999279171228,0.0007090999279171228,883.6222486000042,883.6222486000042,0.016526999999769032,0.0,-12.0,1,0,0,6.256906599970534,'click_1',1.379998866468668e-05,889.8795723000076,0.01544859993737191,0.0014258999144658446,0.0014258999144658446,890.381470900029,890.381470900029,890.381470900029,0.01732460001949221,0.0,0.0,1,0,0,0.33422910002991557,'click_2',1.3399985618889332e-05,0.015698199975304306,,,,15_ctrl,001,control,39,f,14,1,ari,2024-02-09_17h44.19.970,CPO_EEG,2022.2.1,58.53913251683247,
stimoli/01.full/F03-Surprise-Face Forward.mp4,surprised,full,femmina,2,6,720,576,50,,,,,,,,,,,,,,,,,0,0,0,0,,,,,,,,,0,36,36,49,,,0.13473819999489933,892.3426395000424,0.14206039998680353,0.0006982999620959163,0.0006982999620959163,898.3200227000052,898.3200227000052,0.016452900017611682,34.0,-199.0,1,0,0,1.270965400035493,'click_1',1.3599987141788006e-05,899.5914821999613,0.015434699947945774,0.0012886999174952507,0.0012886999174952507,900.0933813999873,900.0933813999873,900.0933813999873,0.01735390000976622,0.0,0.0,1,0,0,0.3343239000532776,'click_2',1.4100107364356518e-05,0.015573000069707632,,,,15_ctrl,001,control,39,f,14,1,ari,2024-02-09_17h44.19.970,CPO_EEG,2022.2.1,58.53913251683247,
stimoli/01.full/M03-Fear-Face Forward.mp4,fear,full,maschio,4,6,720,576,32,,,,,,,,,,,,,,,,,0,0,0,0,,,,,,,,,0,37,37,31,,,0.13771290006116033,902.0575945000164,0.14515820005908608,0.0007137999637052417,0.0007137999637052417,908.0332760999445,908.0332760999445,0.01641029992606491,-87.0,58.0,1,0,0,2.24099419999402,'click_1',1.370010431855917e-05,910.27481610002,0.015441900002770126,0.0016723000444471836,0.0016723000444471836,910.7769004999427,910.7769004999427,910.7769004999427,0.01755540003068745,40.0,-148.0,1,0,0,1.287878799950704,'click_2',1.3899989426136017e-05,0.015661700046621263,,,,15_ctrl,001,control,39,f,14,1,ari,2024-02-09_17h44.19.970,CPO_EEG,2022.2.1,58.53913251683247,
stimoli/02.subtle/JF2_Surprise.mp4,surprised,subtle,femmina,6,10,1646,926,22,,,,,,,,,,,,,,,,,0,0,0,0,,,,,,,,,0,38,38,21,,,0.13877259998116642,913.6958004999906,0.14608360000420362,0.0007475001038983464,0.0007475001038983464,924.0702260000398,924.0702260000398,0.016415700083598495,-53.0,84.0,1,0,0,1.9740351000800729,'click_1',1.379998866468668e-05,926.0449228000361,0.015549900010228157,0.0015430999919772148,0.0015430999919772148,926.5468209999381,926.5468209999381,926.5468209999381,0.017459599999710917,-76.0,59.0,1,0,0,0.8359841000055894,'click_2',1.3599987141788006e-05,0.01555379992350936,,,,15_ctrl,001,control,39,f,14,1,ari,2024-02-09_17h44.19.970,CPO_EEG,2022.2.1,58.53913251683247,
stimoli/02.subtle/JF2_Sadness.mp4,sad,subtle,femmina,6,8,1646,926,18,,,,,,,,,,,,,,,,,0,0,0,0,,,,,,,,,0,39,39,17,,,0.13914199999999255,929.014098500018,0.1463891000021249,0.0006995000876486301,0.0006995000876486301,937.3469947000267,937.3469947000267,0.01647979998961091,-29.0,-150.0,1,0,0,5.9051446000812575,'click_1',1.3999990187585354e-05,943.2527218000032,0.015576799982227385,0.0012954999692738056,0.0012954999692738056,943.7543384999735,943.7543384999735,943.7543384999735,0.017207000055350363,-27.0,-145.0,1,0,0,3.346036000060849,'click_2',1.4100107364356518e-05,0.015857300022616982,,,,15_ctrl,001,control,39,f,14,1,ari,2024-02-09_17h44.19.970,CPO_EEG,2022.2.1,58.53913251683247,
stimoli/01.full/M02-Joy-Face Forward.mp4,happy,full,maschio,3,6,720,576,43,,,,,,,,,,,,,,,,,0,0,0,0,,,,,,,,,0,40,40,42,,,0.13642710004933178,948.7290447000414,0.1437678000656888,0.0007312999805435538,0.0007312999805435538,954.7047418999719,954.7047418999719,0.016564800054766238,156.0,110.0,1,0,0,1.4715938000008464,'click_1',1.3599987141788006e-05,956.1767859000247,0.015431400039233267,0.0015885999891906977,0.0015885999891906977,956.6788474000059,956.6788474000059,956.6788474000059,0.01751440006773919,160.0,107.0,1,0,0,1.1874892000341788,'click_2',1.4299992471933365e-05,0.015567000024020672,,,,15_ctrl,001,control,39,f,14,1,ari,2024-02-09_17h44.19.970,CPO_EEG,2022.2.1,58.53913251683247,
stimoli/01.full/F01-Anger-Face Forward.mp4,angry,full,femmina,1,6,720,576,33,,,,,,,,,,,,,,,,,0,0,0,0,,,,,,,,,0,41,41,32,,,0.13628540001809597,959.4948087999364,0.14353980007581413,0.000713599962182343,0.000713599962182343,965.4706122999778,965.4706122999778,0.016434899996966124,-28.0,138.0,1,0,0,3.4625977999530733,'click_1',1.4199991710484028e-05,968.9336856999435,0.015402100048959255,0.0013922000071033835,0.0013922000071033835,969.4356689000269,969.4356689000269,969.4356689000269,0.01742649998050183,-29.0,138.0,1,0,0,1.789852499961853,'click_2',2.5699962861835957e-05,0.015576299978420138,,,,15_ctrl,001,control,39,f,14,1,ari,2024-02-09_17h44.19.970,CPO_EEG,2022.2.1,58.53913251683247,
stimoli/02.subtle/JM2_Fear.mp4,fear,subtle,maschio,8,10,1646,926,4,,,,,,,,,,,,,,,,,0,0,0,0,,,,,,,,,0,42,42,3,,,0.13671210000757128,972.8542645999696,0.14389760000631213,0.0007139999652281404,0.0007139999652281404,983.4306424999377,983.4306424999377,0.016436200006864965,-57.0,-83.0,1,0,0,2.291708500008099,'click_1',1.3899989426136017e-05,985.7230603999924,0.015630100038833916,0.001523100072517991,0.001523100072517991,986.224929900025,986.224929900025,986.224929900025,0.017513000057078898,-15.0,-103.0,1,0,0,3.7305230000056326,'click_2',1.3499986380338669e-05,0.015585899935103953,,,,15_ctrl,001,control,39,f,14,1,ari,2024-02-09_17h44.19.970,CPO_EEG,2022.2.1,58.53913251683247,
stimoli/02.subtle/JF2_Neutral.mp4,neutral,subtle,femmina,6,9,1646,926,26,,,,,,,,,,,,,,,,,0,0,0,0,,,,,,,,,0,43,43,25,,,0.13901449996046722,991.5865825000219,0.1463197999401018,0.0007200000109151006,0.0007200000109151006,1001.0403464999981,1001.0403464999981,0.016436100006103516,-6.0,3.0,1,0,0,1.1703396999510005,'click_1',1.4099990949034691e-05,1002.2114324000431,0.015676500042900443,0.0012920000590384007,0.0012920000590384007,1002.712991300039,1002.712991300039,1002.712991300039,0.017266300041228533,0.0,0.0,1,0,0,0.35087269998621196,'click_2',1.3299984857439995e-05,0.015604299958795309,,,,15_ctrl,001,control,39,f,14,1,ari,2024-02-09_17h44.19.970,CPO_EEG,2022.2.1,58.53913251683247,
stimoli/02.subtle/JM2_Happiness.mp4,happy,subtle,maschio,8,10,1646,926,16,,,,,,,,,,,,,,,,,0,0,0,0,,,,,,,,,0,44,44,15,,,0.13727870001457632,1004.6932225000346,0.14450910000596195,0.0007396000437438488,0.0007396000437438488,1015.2698675999418,1015.2698675999418,0.01647570007480681,128.0,-83.0,1,0,0,3.1956840999191627,'click_1',1.3699987903237343e-05,1018.4660328000318,0.015376700088381767,0.0012687999987974763,0.0012687999987974763,1018.9678510000231,1018.9678510000231,1018.9678510000231,0.017212999984622,133.0,-32.0,1,0,0,1.5886914000147954,'click_2',1.3899989426136017e-05,0.01580549997743219,,,,15_ctrl,001,control,39,f,14,1,ari,2024-02-09_17h44.19.970,CPO_EEG,2022.2.1,58.53913251683247,
stimoli/01.full/M02-Disgust-Face Forward.mp4,disgusted,full,maschio,3,6,720,576,39,,,,,,,,,,,,,,,,,0,0,0,0,,,,,,,,,0,45,45,38,,,0.13728889997582883,1022.1859783999389,0.14459079992957413,0.0006975000724196434,0.0006975000724196434,1028.1619264000328,1028.1619264000328,0.016385600087232888,-111.0,83.0,1,0,0,1.471853299997747,'click_1',1.3599987141788006e-05,1029.6344572999515,0.015563399996608496,0.0013055999297648668,0.0013055999297648668,1030.1362355999881,1030.1362355999881,1030.1362355999881,0.01733159995637834,-116.0,82.0,1,0,0,1.2544630999909714,'click_2',1.3899989426136017e-05,0.01546799996867776,,,,15_ctrl,001,control,39,f,14,1,ari,2024-02-09_17h44.19.970,CPO_EEG,2022.2.1,58.53913251683247,
stimoli/02.subtle/JM2_Surprise.mp4,surprised,subtle,maschio,8,10,1646,926,24,,,,,,,,,,,,,,,,,0,0,0,0,,,,,,,,,0,46,46,23,,,0.13827690004836768,1033.0209178000223,0.14544600003864616,0.0007541000377386808,0.0007541000377386808,1043.9644817999797,1043.9644817999797,0.01644140004646033,34.0,-146.0,1,0,0,8.129811199964024,'click_1',1.3199984095990658e-05,1052.0950265999418,0.01557449996471405,0.0025058999890461564,0.0025058999890461564,1052.5968669999857,1052.5968669999857,1052.5968669999857,0.017460300005041063,19.0,-131.0,1,0,0,1.2031830000923946,'click_2',1.4199991710484028e-05,0.015429200022481382,,,,15_ctrl,001,control,39,f,14,1,ari,2024-02-09_17h44.19.970,CPO_EEG,2022.2.1,58.53913251683247,
stimoli/02.subtle/JM1_Happiness.mp4,happy,subtle,maschio,7,10,1646,926,15,,,,,,,,,,,,,,,,,0,0,0,0,,,,,,,,,0,47,47,14,,,0.13503090001177043,1055.428228899953,0.14232730004005134,0.0007395000429823995,0.0007395000429823995,1065.8055631000316,1065.8055631000316,0.016422900022007525,117.0,73.0,1,0,0,7.796545699937269,'click_1',1.4199991710484028e-05,1073.6027338999556,0.015465999953448772,0.0014021999668329954,0.0014021999668329954,1074.1046358000021,1074.1046358000021,1074.1046358000021,0.017382899997755885,119.0,73.0,1,0,0,6.842529000015929,'click_2',1.7300015315413475e-05,0.015607899986207485,,,,15_ctrl,001,control,39,f,14,1,ari,2024-02-09_17h44.19.970,CPO_EEG,2022.2.1,58.53913251683247,
stimoli/01.full/M02-Anger-Face Forward.mp4,angry,full,maschio,3,6,720,576,35,,,,,,,,,,,,,,,,,0,0,0,0,,,,,,,,,0,48,48,34,,,0.13706079998519272,1082.57640479994,0.14434919995255768,0.0007182999979704618,0.0007182999979704618,1088.551789799938,1088.551789799938,0.016458299942314625,-33.0,135.0,1,0,0,1.756143599981442,'click_1',1.3699987903237343e-05,1090.3084412999451,0.015465299948118627,0.0014434000477194786,0.0014434000477194786,1090.8103152000112,1090.8103152000112,1090.8103152000112,0.017312300042249262,-25.0,125.0,1,0,0,1.0033978000283241,'click_2',1.3699987903237343e-05,0.01582950004376471,,,,15_ctrl,001,control,39,f,14,1,ari,2024-02-09_17h44.19.970,CPO_EEG,2022.2.1,58.53913251683247,
stimoli/02.subtle/JM1_Fear.mp4,fear,subtle,maschio,7,10,1646,926,3,,,,,,,,,,,,,,,,,0,0,0,0,,,,,,,,,0,49,49,2,,,0.1376998999621719,1093.4435871000169,0.14491280005313456,0.0007249999325722456,0.0007249999325722456,1103.8172819999745,1103.8172819999745,0.01654479990247637,-85.0,-128.0,1,0,0,1.8063266000244766,'click_1',1.4199991710484028e-05,1105.6241076999577,0.015549700008705258,0.0017167000332847238,0.0017167000332847238,1106.1260585000273,1106.1260585000273,1106.1260585000273,0.017525200033560395,-82.0,-131.0,1,0,0,1.4718713000183925,'click_2',1.3599987141788006e-05,0.015638899989426136,,,,15_ctrl,001,control,39,f,14,1,ari,2024-02-09_17h44.19.970,CPO_EEG,2022.2.1,58.53913251683247,
stimoli/01.full/M03-Surprise-Face Forward.mp4,surprised,full,maschio,4,6,720,576,52,,,,,,,,,,,,,,,,,0,0,0,0,,,,,,,,,0,50,50,51,,,0.1354888000059873,1109.2257903999416,0.14287129999138415,0.0007362999022006989,0.0007362999022006989,1115.2020891000284,1115.2020891000284,0.016560799907892942,43.0,-204.0,1,0,0,2.877361400052905,'click_1',1.3599987141788006e-05,1118.0800100000342,0.015551900025457144,0.001538399956189096,0.001538399956189096,1118.5818718000082,1118.5818718000082,1118.5818718000082,0.017470199964009225,42.0,-199.0,1,0,0,1.4549093999667093,'click_2',1.379998866468668e-05,0.015831899945624173,,,,15_ctrl,001,control,39,f,14,1,ari,2024-02-09_17h44.19.970,CPO_EEG,2022.2.1,58.53913251683247,
stimoli/01.full/F03-Joy-Face Forward.mp4,happy,full,femmina,2,6,720,576,42,,,,,,,,,,,,,,,,,0,0,0,0,,,,,,,,,0,51,51,41,,,0.13471839996054769,1121.6636690000305,0.14197560003958642,0.0007339000003412366,0.0007339000003412366,1127.6410268000327,1127.6410268000327,0.016426799935288727,165.0,120.0,1,0,0,2.0741529999068007,'click_1',1.4099990949034691e-05,1129.7157327999594,0.015418300055898726,0.001343499985523522,0.001343499985523522,1130.2176116999472,1130.2176116999472,1130.2176116999472,0.017340300022624433,165.0,118.0,1,0,0,1.4551657000556588,'click_2',1.4399993233382702e-05,0.015471299993805587,,,,15_ctrl,001,control,39,f,14,1,ari,2024-02-09_17h44.19.970,CPO_EEG,2022.2.1,58.53913251683247,
stimoli/01.full/F01-Fear-Face Forward.mp4,fear,full,femmina,1,6,720,576,29,,,,,,,,,,,,,,,,,0,0,0,0,,,,,,,,,0,52,52,28,,,0.13606699998490512,1133.3010744999629,0.14347100001759827,0.0007266000611707568,0.0007266000611707568,1139.2773532000137,1139.2773532000137,0.016411300050094724,-81.0,-121.0,1,0,0,1.1374271000968292,'click_1',1.3399985618889332e-05,1140.415388399968,0.015454299980774522,0.0015254999743774533,0.0015254999743774533,1140.9173387000337,1140.9173387000337,1140.9173387000337,0.017412999994121492,-79.0,-122.0,1,0,0,0.9698908999562263,'click_2',1.4699995517730713e-05,0.015518499887548387,,,,15_ctrl,001,control,39,f,14,1,ari,2024-02-09_17h44.19.970,CPO_EEG,2022.2.1,58.53913251683247,
stimoli/02.subtle/JM1_Disgust.mp4,disgusted,subtle,maschio,7,10,1646,926,11,,,,,,,,,,,,,,,,,0,0,0,0,,,,,,,,,0,53,53,10,,,0.13937959994655102,1143.5189737000037,0.1470320998923853,0.0007218000246211886,0.0007218000246211886,1153.8922135999892,1153.8922135999892,0.01636280003003776,-131.0,-84.0,1,0,0,2.4757751000579447,'click_1',1.5199999324977398e-05,1156.3685749999713,0.015459500020369887,0.001320800045505166,0.001320800045505166,1156.87043609994,1156.87043609994,1156.87043609994,0.017347700078971684,-22.0,-142.0,1,0,0,0.8530591999879107,'click_2',1.4399993233382702e-05,0.015713500091806054,,,,15_ctrl,001,control,39,f,14,1,ari,2024-02-09_17h44.19.970,CPO_EEG,2022.2.1,58.53913251683247,
stimoli/01.full/F03-Sadness-Face Forward.mp4,sad,full,femmina,2,6,720,576,46,,,,,,,,,,,,,,,,,0,0,0,0,,,,,,,,,0,54,54,45,,,0.1364074000157416,1159.3520683000097,0.14378420007415116,0.0007365000201389194,0.0007365000201389194,1165.327488400042,1165.327488400042,0.016328300000168383,-23.0,-193.0,1,0,0,1.2040478999260813,'click_1',1.3599987141788006e-05,1166.5322931000264,0.015546299982815981,0.0015053999377414584,0.0015053999377414584,1167.034140200005,1167.034140200005,1167.034140200005,0.017413800000213087,-42.0,-196.0,1,0,0,2.1248791000107303,'click_2',1.3399985618889332e-05,0.015421699965372682,,,,15_ctrl,001,control,39,f,14,1,ari,2024-02-09_17h44.19.970,CPO_EEG,2022.2.1,58.53913251683247,
stimoli/01.full/F01-Sadness-Face Forward.mp4,sad,full,femmina,1,6,720,576,45,,,,,,,,,,,,,,,,,0,0,0,0,,,,,,,,,0,55,55,44,,,0.1356156999245286,1170.7870409999741,0.1430372999748215,0.0007127999560907483,0.0007127999560907483,1176.7632122000214,1176.7632122000214,0.016405300004407763,-54.0,-211.0,1,0,0,1.2038544999668375,'click_1',1.4599994756281376e-05,1177.9677503999555,0.015588799957185984,0.0016072000144049525,0.0016072000144049525,1178.4697381999576,1178.4697381999576,1178.4697381999576,0.017590499948710203,0.0,0.0,1,0,0,0.3507531000068411,'click_2',1.3599987141788006e-05,0.015523099922575057,,,,15_ctrl,001,control,39,f,14,1,ari,2024-02-09_17h44.19.970,CPO_EEG,2022.2.1,58.53913251683247,
,,,,,,,,,,,,,,,,,,,,,,,,,0,0,0,0,,,,,,,,,,,,,,,,,,,,,,,,,,,,,,,,,,,,,,,,,,,,,,,,,,,15_ctrl,001,control,39,f,14,1,ari,2024-02-09_17h44.19.970,CPO_EEG,2022.2.1,58.53913251683247,
,,,,,,,,,,,,,,,,,,,,,,,,,1,0,1,0,,,,,0,0,0,0,,,,,,,,,,,,,,,,,,,,,,,,,,,,,,,,,,,,,,,,,,,15_ctrl,001,control,39,f,14,1,ari,2024-02-09_17h44.19.970,CPO_EEG,2022.2.1,58.53913251683247,
stimoli/02.subtle/JF2_Neutral.mp4,neutral,subtle,femmina,6,9,1646,926,26,,,,,,,,,,,,,,,,,1,0,1,0,,,,,,,,,0,0,0,25,,,0.13860459998250008,1196.5975667999592,0.14594570000190288,0.0007415999425575137,0.0007415999425575137,1206.0552447999362,1206.0552447999362,0.016428799950517714,1.0,0.0,1,0,0,1.2042286000214517,'click_1',1.6200006939470768e-05,1207.261632299982,0.015113300061784685,-0.00011639995500445366,-0.00011639995500445366,1207.7620863999473,1207.7620863999473,1207.7620863999473,0.015601000050082803,0.0,0.0,1,0,0,2.492009099922143,'click_2',1.4699995517730713e-05,0.0152322999201715,,,1207.7620863999473,15_ctrl,001,control,39,f,14,1,ari,2024-02-09_17h44.19.970,CPO_EEG,2022.2.1,58.53913251683247,
stimoli/02.subtle/JM1_Disgust.mp4,disgusted,subtle,maschio,7,10,1646,926,11,,,,,,,,,,,,,,,,,1,0,1,0,,,,,,,,,0,1,1,10,,,0.13176539994310588,1211.8785311999964,0.13895639998372644,0.0006864999886602163,0.0006864999886602163,1222.258631899953,1222.258631899953,0.01632109994534403,-32.0,-204.0,1,0,0,1.237604400026612,'click_1',1.379998866468668e-05,1223.4968736999435,0.015482200076803565,0.0011408000718802214,0.0011408000718802214,1223.9985325000016,1223.9985325000016,1223.9985325000016,0.01718830002937466,-32.0,-212.0,1,0,0,1.2379468000726774,'click_2',1.4299992471933365e-05,0.015544399968348444,,,,15_ctrl,001,control,39,f,14,1,ari,2024-02-09_17h44.19.970,CPO_EEG,2022.2.1,58.53913251683247,
stimoli/01.full/F03-Disgust-Face Forward.mp4,disgusted,full,femmina,2,6,720,576,38,,,,,,,,,,,,,,,,,1,0,1,0,,,,,,,,,0,2,2,37,,,0.13118659995961934,1226.859845399973,0.13860129995737225,0.0007119999499991536,0.0007119999499991536,1232.8413207000121,1232.8413207000121,0.01648399990517646,-163.0,116.0,1,0,0,1.7731104999547824,'click_1',1.4099990949034691e-05,1234.6147862999933,0.01525449997279793,0.0008338999468833208,0.0008338999468833208,1235.1162959999638,1235.1162959999638,1235.1162959999638,0.016780899954028428,-164.0,110.0,1,0,0,1.4054051999701187,'click_2',1.3999990187585354e-05,0.015614000032655895,,,,15_ctrl,001,control,39,f,14,1,ari,2024-02-09_17h44.19.970,CPO_EEG,2022.2.1,58.53913251683247,
stimoli/02.subtle/JM1_Surprise.mp4,surprised,subtle,maschio,7,10,1646,926,23,,,,,,,,,,,,,,,,,1,0,1,0,,,,,,,,,0,3,3,22,,,0.13135879999026656,1238.1451197999995,0.1385778000112623,0.0007244000444188714,0.0007244000444188714,1248.5253687000368,1248.5253687000368,0.016522399964742362,168.0,-119.0,1,0,0,1.3041513999924064,'click_1',1.309998333454132e-05,1249.8300055,0.015464100055396557,0.0015542999608442187,0.0015542999608442187,1250.3321174000157,1250.3321174000157,1250.3321174000157,0.017623299965634942,189.0,-112.0,1,0,0,1.2543078999733552,'click_2',1.3999990187585354e-05,0.015640300000086427,,,,15_ctrl,001,control,39,f,14,1,ari,2024-02-09_17h44.19.970,CPO_EEG,2022.2.1,58.53913251683247,
stimoli/02.subtle/JM2_Disgust.mp4,disgusted,subtle,maschio,8,10,1646,926,12,,,,,,,,,,,,,,,,,1,0,1,0,,,,,,,,,0,4,4,11,,,0.1311017000116408,1253.2095201000338,0.1383800000185147,0.0006852999795228243,0.0006852999795228243,1263.790711299982,1263.790711299982,0.016363800037652254,-32.0,-142.0,1,0,0,1.8734629000537097,'click_1',1.4699995517730713e-05,1265.6648176000454,0.015568199916742742,0.0013087999541312456,0.0013087999541312456,1266.1664758999832,1266.1664758999832,1266.1664758999832,0.017233099904842675,-32.0,-141.0,1,0,0,0.9365137999411672,'click_2',1.4199991710484028e-05,0.01560450007673353,,,,15_ctrl,001,control,39,f,14,1,ari,2024-02-09_17h44.19.970,CPO_EEG,2022.2.1,58.53913251683247,
stimoli/01.full/F03-Anger-Face Forward.mp4,angry,full,femmina,2,6,720,576,34,,,,,,,,,,,,,,,,,1,0,1,0,,,,,,,,,0,5,5,33,,,0.12811110005714,1268.7232503000414,0.1354455000255257,0.0007162999827414751,0.0007162999827414751,1274.7407195999986,1274.7407195999986,0.0164933999767527,-36.0,143.0,1,0,0,1.6559098999714479,'click_1',1.3899989426136017e-05,1276.3971387000056,0.015521799912676215,0.0013698999537155032,0.0013698999537155032,1276.8988996000262,1276.8988996000262,1276.8988996000262,0.01726959994994104,-25.0,146.0,1,0,0,1.0872602999443188,'click_2',1.4299992471933365e-05,0.015598000027239323,,,,15_ctrl,001,control,39,f,14,1,ari,2024-02-09_17h44.19.970,CPO_EEG,2022.2.1,58.53913251683247,
stimoli/02.subtle/JF2_Anger.mp4,angry,subtle,femmina,6,9,1646,926,6,,,,,,,,,,,,,,,,,1,0,1,0,,,,,,,,,0,6,6,5,,,0.13544630003161728,1279.6138995999936,0.14278570003807545,0.0006941999308764935,0.0006941999308764935,1289.069875300047,1289.069875300047,0.016434299992397428,-23.0,145.0,1,0,0,1.889490699977614,'click_1',1.8300022929906845e-05,1290.960021900013,0.01562800002284348,0.001562700024805963,0.001562700024805963,1291.461960799992,1291.461960799992,1291.461960799992,0.017623899970203638,-27.0,141.0,1,0,0,0.9032070999965072,'click_2',1.4400109648704529e-05,0.015641600009985268,,,,15_ctrl,001,control,39,f,14,1,ari,2024-02-09_17h44.19.970,CPO_EEG,2022.2.1,58.53913251683247,
stimoli/02.subtle/JM1_Anger.mp4,angry,subtle,maschio,7,10,1646,926,7,,,,,,,,,,,,,,,,,1,0,1,0,,,,,,,,,0,7,7,6,,,0.13433690008241683,1293.9915793000255,0.14163270010612905,0.0006891000084578991,0.0006891000084578991,1304.3684517999645,1304.3684517999645,0.016448399983346462,-35.0,137.0,1,0,0,1.8734784999396652,'click_1',1.4199991710484028e-05,1306.2425317999441,0.015535699902102351,0.0014392000157386065,0.0014392000157386065,1306.7443221999565,1306.7443221999565,1306.7443221999565,0.01735129998996854,-24.0,143.0,1,0,0,3.8308047000318766,'click_2',1.4399993233382702e-05,0.015464100055396557,,,,15_ctrl,001,control,39,f,14,1,ari,2024-02-09_17h44.19.970,CPO_EEG,2022.2.1,58.53913251683247,
stimoli/02.subtle/JF1_Fear.mp4,fear,subtle,femmina,5,10,1646,926,1,,,,,,,,,,,,,,,,,1,0,1,0,,,,,,,,,0,8,8,0,,,0.13268090004567057,1312.2000014999649,0.13992480002343655,0.000732000102289021,0.000732000102289021,1322.9810572999995,1322.9810572999995,0.01641350006684661,-80.0,-127.0,1,0,0,2.3249828000552952,'click_1',1.4099990949034691e-05,1325.3065986000001,0.015350500005297363,0.0015399999683722854,0.0015399999683722854,1325.8085581000196,1325.8085581000196,1325.8085581000196,0.017332199960947037,-79.0,-114.0,1,0,0,1.0198852000758052,'click_2',1.4399993233382702e-05,0.015706899925135076,,,,15_ctrl,001,control,39,f,14,1,ari,2024-02-09_17h44.19.970,CPO_EEG,2022.2.1,58.53913251683247,
stimoli/02.subtle/JF1_Neutral.mp4,neutral,subtle,femmina,5,10,1646,926,25,,,,,,,,,,,,,,,,,1,0,1,0,,,,,,,,,0,9,9,24,,,0.13340349995996803,1328.4542564000003,0.14068690000567585,0.000683500082232058,0.000683500082232058,1339.23480440001,1339.23480440001,0.016447699978016317,101.0,21.0,1,0,0,2.0736636000219733,'click_1',1.379998866468668e-05,1341.3090948000317,0.0156325000571087,0.0016979000065475702,0.0016979000065475702,1341.8111168999458,1341.8111168999458,1341.8111168999458,0.017707900027744472,100.0,17.0,1,0,0,1.0868999999947846,'click_2',1.4099990949034691e-05,0.015619700076058507,,,,15_ctrl,001,control,39,f,14,1,ari,2024-02-09_17h44.19.970,CPO_EEG,2022.2.1,58.53913251683247,
stimoli/02.subtle/JF2_Happiness.mp4,happy,subtle,femmina,6,9,1646,926,14,,,,,,,,,,,,,,,,,1,0,1,0,,,,,,,,,0,10,10,13,,,0.1345021000597626,1344.524697600049,0.14183980005327612,0.0007609999738633633,0.0007609999738633633,1353.981752099935,1353.981752099935,0.016398799954913557,126.0,82.0,1,0,0,3.395317199989222,'click_1',1.3900105841457844e-05,1357.3779280999443,0.01571110007353127,0.0014999000122770667,0.0014999000122770667,1357.879609699943,1357.879609699943,1357.879609699943,0.017443600110709667,122.0,82.0,1,0,0,1.087333400035277,'click_2',1.4400109648704529e-05,0.01561770006082952,,,,15_ctrl,001,control,39,f,14,1,ari,2024-02-09_17h44.19.970,CPO_EEG,2022.2.1,58.53913251683247,
stimoli/02.subtle/JF1_Disgust.mp4,disgusted,subtle,femmina,5,10,1646,926,9,,,,,,,,,,,,,,,,,1,0,1,0,,,,,,,,,0,11,11,8,,,0.13559210009407252,1360.5946439999389,0.14282840001396835,0.0006928000366315246,0.0006928000366315246,1371.3730956999352,1371.3730956999352,0.016422900022007525,-41.0,-205.0,1,0,0,1.5886692999629304,'click_1',1.4199991710484028e-05,1372.9623895999976,0.015529299969784915,0.001574499998241663,0.001574499998241663,1373.4643066000426,1373.4643066000426,1373.4643066000426,0.017465299926698208,-35.0,-202.0,1,0,0,0.9033782000187784,'click_2',1.4099990949034691e-05,0.0155081000411883,,,,15_ctrl,001,control,39,f,14,1,ari,2024-02-09_17h44.19.970,CPO_EEG,2022.2.1,58.53913251683247,
stimoli/01.full/M02-Anger-Face Forward.mp4,angry,full,maschio,3,6,720,576,35,,,,,,,,,,,,,,,,,1,0,1,0,,,,,,,,,0,12,12,34,,,0.13165250001475215,1375.9916772999568,0.13904549996368587,0.0007366000209003687,0.0007366000209003687,1381.971658000024,1381.971658000024,0.016317900037392974,-21.0,96.0,1,0,0,2.6765028000809252,'click_1',1.3899989426136017e-05,1384.6488466999726,0.015520199900493026,0.0014022999675944448,0.0014022999675944448,1385.1507152999984,1385.1507152999984,1385.1507152999984,0.017414300004020333,-18.0,103.0,1,0,0,0.9367712999228388,'click_2',1.4399993233382702e-05,0.015408299979753792,,,,15_ctrl,001,control,39,f,14,1,ari,2024-02-09_17h44.19.970,CPO_EEG,2022.2.1,58.53913251683247,
stimoli/02.subtle/JM2_Happiness.mp4,happy,subtle,maschio,8,10,1646,926,16,,,,,,,,,,,,,,,,,1,0,1,0,,,,,,,,,0,13,13,15,,,0.1327895000576973,1387.7123419999843,0.14001440000720322,0.000700299977324903,0.000700299977324903,1398.292555199936,1398.292555199936,0.01642040000297129,153.0,22.0,1,0,0,1.5548347999574617,'click_1',1.379998866468668e-05,1399.8479944999563,0.015505899908021092,0.0016271999338641763,0.0016271999338641763,1400.3500265999464,1400.3500265999464,1400.3500265999464,0.017512099933810532,151.0,25.0,1,0,0,0.8862267000367865,'click_2',1.3699987903237343e-05,0.015699799987487495,,,,15_ctrl,001,control,39,f,14,1,ari,2024-02-09_17h44.19.970,CPO_EEG,2022.2.1,58.53913251683247,
stimoli/02.subtle/JM2_Fear.mp4,fear,subtle,maschio,8,10,1646,926,4,,,,,,,,,,,,,,,,,1,0,1,0,,,,,,,,,0,14,14,3,,,0.13261600001715124,1402.8609326999867,0.1397986999945715,0.0006782000418752432,0.0006782000418752432,1413.4415352999931,1413.4415352999931,0.01642510003875941,-28.0,-144.0,1,0,0,4.198989099939354,'click_1',1.4400109648704529e-05,1417.6412028999766,0.015618600067682564,0.001748700044117868,0.001748700044117868,1418.143355499953,1418.143355499953,1418.143355499953,0.017789300065487623,-31.0,-133.0,1,0,0,0.8865328999236226,'click_2',1.4099990949034691e-05,0.015712799970060587,,,,15_ctrl,001,control,39,f,14,1,ari,2024-02-09_17h44.19.970,CPO_EEG,2022.2.1,58.53913251683247,
stimoli/01.full/F01-Surprise-Face Forward.mp4,surprised,full,femmina,1,6,720,576,49,,,,,,,,,,,,,,,,,1,0,1,0,,,,,,,,,0,15,15,48,,,0.13113880006130785,1420.6530559000093,0.13843950000591576,0.0007257000543177128,0.0007257000543177128,1426.6345355999656,1426.6345355999656,0.01649770000949502,47.0,-207.0,1,0,0,7.3104828000068665,'click_1',1.7900019884109497e-05,1433.9454504000023,0.015377000090666115,0.0012565000215545297,0.0012565000215545297,1434.44722620002,1434.44722620002,1434.44722620002,0.01718650001566857,43.0,-199.0,1,0,0,1.304444900015369,'click_2',1.4099990949034691e-05,0.015588999958708882,,,,15_ctrl,001,control,39,f,14,1,ari,2024-02-09_17h44.19.970,CPO_EEG,2022.2.1,58.53913251683247,
stimoli/01.full/M03-Anger-Face Forward.mp4,angry,full,maschio,4,6,720,576,36,,,,,,,,,,,,,,,,,1,0,1,0,,,,,,,,,0,16,16,35,,,0.1323415000224486,1437.376307599945,0.1397570000262931,0.0007480001077055931,0.0007480001077055931,1443.3560938000446,1443.3560938000446,0.016327699995599687,-40.0,-153.0,1,0,0,4.885497400071472,'click_1',1.4100107364356518e-05,1448.2423383999849,0.015570600051432848,0.001492000068537891,0.001492000068537891,1448.744207700016,1448.744207700016,1448.744207700016,0.017406600061804056,-20.0,139.0,1,0,0,1.6226798000279814,'click_2',1.4299992471933365e-05,0.015574199962429702,,,,15_ctrl,001,control,39,f,14,1,ari,2024-02-09_17h44.19.970,CPO_EEG,2022.2.1,58.53913251683247,
stimoli/01.full/M03-Surprise-Face Forward.mp4,surprised,full,maschio,4,6,720,576,52,,,,,,,,,,,,,,,,,1,0,1,0,,,,,,,,,0,17,17,51,,,0.13025789998937398,1451.9895080999704,0.1376819999422878,0.0007287999615073204,0.0007287999615073204,1457.9713711999357,1457.9713711999357,0.016464199987240136,56.0,-218.0,1,0,0,1.1700937999412417,'click_1',1.4599994756281376e-05,1459.1421862000134,0.015654099988751113,0.0019383999751880765,0.0019383999751880765,1459.644293499994,1459.644293499994,1459.644293499994,0.01779109996277839,39.0,-201.0,1,0,0,0.9362213000422344,'click_2',1.4299992471933365e-05,0.01567669992800802,,,,15_ctrl,001,control,39,f,14,1,ari,2024-02-09_17h44.19.970,CPO_EEG,2022.2.1,58.53913251683247,
stimoli/01.full/F01-Sadness-Face Forward.mp4,sad,full,femmina,1,6,720,576,45,,,,,,,,,,,,,,,,,1,0,1,0,,,,,,,,,0,18,18,44,,,0.13154519989620894,1462.204674800043,0.13911869993899018,0.0006775999208912253,0.0006775999208912253,1468.1846397999907,1468.1846397999907,0.016533799935132265,-51.0,-186.0,1,0,0,3.864501800038852,'click_1',1.4399993233382702e-05,1472.0496040999424,0.015495499945245683,0.0014801999786868691,0.0014801999786868691,1472.551549899974,1472.551549899974,1472.551549899974,0.017427399987354875,-47.0,-197.0,1,0,0,1.2723477999679744,'click_2',1.4499993994832039e-05,0.014511100016534328,,,,15_ctrl,001,control,39,f,14,1,ari,2024-02-09_17h44.19.970,CPO_EEG,2022.2.1,58.53913251683247,
stimoli/01.full/M03-Sadness-Face Forward.mp4,sad,full,maschio,4,6,720,576,48,,,,,,,,,,,,,,,,,1,0,1,0,,,,,,,,,0,19,19,47,,,0.12975720001850277,1475.4459202999715,0.13714110001455992,0.0007238000398501754,0.0007238000398501754,1481.4266053000465,1481.4266053000465,0.016513400012627244,-43.0,-189.0,1,0,0,1.1719492999836802,'click_1',1.4999997802078724e-05,1482.5979001999367,0.014383099973201752,0.0004591000033542514,0.0004591000033542514,1483.0996319999686,1483.0996319999686,1483.0996319999686,0.016111899982206523,-56.0,-207.0,1,0,0,0.8528573999647051,'click_2',1.479999627918005e-05,0.015518800006248057,,,1483.0996319999686,15_ctrl,001,control,39,f,14,1,ari,2024-02-09_17h44.19.970,CPO_EEG,2022.2.1,58.53913251683247,
stimoli/01.full/M02-Joy-Face Forward.mp4,happy,full,maschio,3,6,720,576,43,,,,,,,,,,,,,,,,,1,0,1,0,,,,,,,,,0,20,20,42,,,0.132081100018695,1485.577114499989,0.13939470006152987,0.0007130999583750963,0.0007130999583750963,1491.556603700039,1491.556603700039,0.016449199989438057,173.0,113.0,1,0,0,4.165550300036557,'click_1',1.7700018361210823e-05,1495.7227165999357,0.01554380008019507,0.0014035999774932861,0.0014035999774932861,1496.2244531000033,1496.2244531000033,1496.2244531000033,0.01730980002321303,175.0,114.0,1,0,0,1.4067503999685869,'click_2',1.4299992471933365e-05,0.013948700041510165,,,,15_ctrl,001,control,39,f,14,1,ari,2024-02-09_17h44.19.970,CPO_EEG,2022.2.1,58.53913251683247,
stimoli/01.full/M02-Disgust-Face Forward.mp4,disgusted,full,maschio,3,6,720,576,39,,,,,,,,,,,,,,,,,1,0,1,0,,,,,,,,,0,21,21,38,,,0.13012190000154078,1499.2534128000261,0.13733389996923506,0.0006777000380679965,0.0006777000380679965,1505.2335360000143,1505.2335360000143,0.016475900076329708,-175.0,112.0,1,0,0,1.6057895999401808,'click_1',1.3999990187585354e-05,1506.8399873999879,0.015655700000934303,0.0011367000406607985,0.0011367000406607985,1507.3415480999975,1507.3415480999975,1507.3415480999975,0.01720730005763471,-165.0,105.0,1,0,0,0.8364946999354288,'click_2',1.3599987141788006e-05,0.015496399952098727,,,,15_ctrl,001,control,39,f,14,1,ari,2024-02-09_17h44.19.970,CPO_EEG,2022.2.1,58.53913251683247,
stimoli/01.full/M02-Neutral-Face Forward.mp4,neutral,full,maschio,3,6,720,576,55,,,,,,,,,,,,,,,,,1,0,1,0,,,,,,,,,0,22,22,54,,,0.13186069997027516,1509.8019731999375,0.1392093999311328,0.0006851000944152474,0.0006851000944152474,1515.782505900017,1515.782505900017,0.016568700084462762,0.0,0.0,1,0,0,1.1200920999981463,'click_1',1.379998866468668e-05,1516.9031130999792,0.0155821000225842,0.0015608000103384256,0.0015608000103384256,1517.4050051999511,1517.4050051999511,1517.4050051999511,0.01749200001358986,76.0,51.0,1,0,0,3.6464802999980748,'click_2',1.4499993994832039e-05,0.015503300004638731,,,,15_ctrl,001,control,39,f,14,1,ari,2024-02-09_17h44.19.970,CPO_EEG,2022.2.1,58.53913251683247,
stimoli/02.subtle/JF2_Surprise.mp4,surprised,subtle,femmina,6,10,1646,926,22,,,,,,,,,,,,,,,,,1,0,1,0,,,,,,,,,0,23,23,21,,,0.1353798999916762,1522.6791027999716,0.14269729994703084,0.0007562999380752444,0.0007562999380752444,1533.0554261000361,1533.0554261000361,0.016377400024794042,26.0,-134.0,1,0,0,1.9402158000739291,'click_1',1.3899989426136017e-05,1534.996375799994,0.015625500003807247,0.001859899959526956,0.001859899959526956,1535.4986102000112,1535.4986102000112,1535.4986102000112,0.01784470002166927,-89.0,57.0,1,0,0,1.6391518000746146,'click_2',1.4099990949034691e-05,0.01550510001834482,,,,15_ctrl,001,control,39,f,14,1,ari,2024-02-09_17h44.19.970,CPO_EEG,2022.2.1,58.53913251683247,
stimoli/01.full/M02-Sadness-Face Forward.mp4,sad,full,maschio,3,6,720,576,47,,,,,,,,,,,,,,,,,1,0,1,0,,,,,,,,,0,24,24,46,,,0.13178830000106245,1538.7616880999412,0.13912089995574206,0.0007110999431461096,0.0007110999431461096,1544.373979200027,1544.373979200027,0.016412099939770997,-30.0,-154.0,1,0,0,1.6057135000592098,'click_1',1.750001683831215e-05,1545.980246799998,0.01547380001284182,0.001851600012741983,0.001851600012741983,1546.4824324999936,1546.4824324999936,1546.4824324999936,0.017707700026221573,-33.0,-148.0,1,0,0,0.9864886000286788,'click_2',1.3899989426136017e-05,0.015796300023794174,,,,15_ctrl,001,control,39,f,14,1,ari,2024-02-09_17h44.19.970,CPO_EEG,2022.2.1,58.53913251683247,
stimoli/01.full/M03-Joy-Face Forward.mp4,happy,full,maschio,4,6,720,576,44,,,,,,,,,,,,,,,,,1,0,1,0,,,,,,,,,0,25,25,43,,,0.13155759999062866,1549.092790100025,0.13890359993092716,0.0007379000307992101,0.0007379000307992101,1555.073998900014,1555.073998900014,0.016504800063557923,177.0,106.0,1,0,0,4.851592999999411,'click_1',1.3800105080008507e-05,1559.9260868999409,0.01542060007341206,0.0012277000350877643,0.0012277000350877643,1560.4279145000037,1560.4279145000037,1560.4279145000037,0.017272200086154044,165.0,107.0,1,0,0,1.3044191000517458,'click_2',1.4099990949034691e-05,0.015732300002127886,,,,15_ctrl,001,control,39,f,14,1,ari,2024-02-09_17h44.19.970,CPO_EEG,2022.2.1,58.53913251683247,
stimoli/02.subtle/JM1_Fear.mp4,fear,subtle,maschio,7,10,1646,926,3,,,,,,,,,,,,,,,,,1,0,1,0,,,,,,,,,0,26,26,2,,,0.13265729998238385,1563.3569442000007,0.13987730001099408,0.0007181999972090125,0.0007181999972090125,1573.7358474000357,1573.7358474000357,0.01649479998741299,-86.0,-128.0,1,0,0,2.1749243999365717,'click_1',1.3999990187585354e-05,1575.911298000021,0.015547699993476272,0.0014704999048262835,0.0014704999048262835,1576.4132307999535,1576.4132307999535,1576.4132307999535,0.017500199959613383,-80.0,-113.0,1,0,0,1.0035208000335842,'click_2',1.3599987141788006e-05,0.01545299997087568,,,,15_ctrl,001,control,39,f,14,1,ari,2024-02-09_17h44.19.970,CPO_EEG,2022.2.1,58.53913251683247,
stimoli/02.subtle/JF2_Disgust.mp4,disgusted,subtle,femmina,6,10,1646,926,10,,,,,,,,,,,,,,,,,1,0,1,0,,,,,,,,,0,27,27,9,,,0.13422370003536344,1579.043091099942,0.14154209999833256,0.0007335999980568886,0.0007335999980568886,1589.419978299993,1589.419978299993,0.01645940006710589,-37.0,-187.0,1,0,0,1.2207463000668213,'click_1',1.4999997802078724e-05,1590.6413336000405,0.01548409997485578,0.001299199997447431,0.001299199997447431,1591.14321140002,1591.14321140002,1591.14321140002,0.01734789996407926,-37.0,-186.0,1,0,0,0.6858306999783963,'click_2',1.4599994756281376e-05,0.015578099992126226,,,,15_ctrl,001,control,39,f,14,1,ari,2024-02-09_17h44.19.970,CPO_EEG,2022.2.1,58.53913251683247,
stimoli/01.full/F01-Fear-Face Forward.mp4,fear,full,femmina,1,6,720,576,29,,,,,,,,,,,,,,,,,1,0,1,0,,,,,,,,,0,28,28,28,,,0.13171920005697757,1593.4527280000038,0.13896710006520152,0.0007204000139608979,0.0007204000139608979,1599.4328433000483,1599.4328433000483,0.016459900070913136,-108.0,-176.0,1,0,0,1.2040991999674588,'click_1',1.4299992471933365e-05,1600.6375446999446,0.015581200015731156,0.0014055999927222729,0.0014055999927222729,1601.139313200023,1601.139313200023,1601.139313200023,0.017375599942170084,27.0,-208.0,1,0,0,1.1373901999322698,'click_2',1.4099990949034691e-05,0.0156989999813959,,,,15_ctrl,001,control,39,f,14,1,ari,2024-02-09_17h44.19.970,CPO_EEG,2022.2.1,58.53913251683247,
stimoli/01.full/F03-Fear-Face Forward.mp4,fear,full,femmina,2,6,720,576,30,,,,,,,,,,,,,,,,,1,0,1,0,,,,,,,,,0,29,29,29,,,0.13211630005389452,1603.9009805000387,0.1394471999956295,0.0007166999857872725,0.0007166999857872725,1609.8813775000162,1609.8813775000162,0.016372699989005923,-121.0,-173.0,1,0,0,1.2042827000841498,'click_1',1.3999990187585354e-05,1611.0864644999383,0.015603199950419366,0.001489599933847785,0.001489599933847785,1611.588325300021,1611.588325300021,1611.588325300021,0.01749909995123744,-120.0,-172.0,1,0,0,3.195562000037171,'click_2',1.5300000086426735e-05,0.015548199997283518,,,,15_ctrl,001,control,39,f,14,1,ari,2024-02-09_17h44.19.970,CPO_EEG,2022.2.1,58.53913251683247,
stimoli/01.full/M02-Surprise-Face Forward.mp4,surprised,full,maschio,3,6,720,576,51,,,,,,,,,,,,,,,,,1,0,1,0,,,,,,,,,0,30,30,50,,,0.1309441999765113,1616.407095600036,0.13839430001098663,0.0007139000808820128,0.0007139000808820128,1622.388911099988,1622.388911099988,0.01649750000797212,31.0,-217.0,1,0,0,1.0197733000386506,'click_1',1.3999990187585354e-05,1623.4093767999439,0.015695699956268072,0.0016132000600919127,0.0016132000600919127,1623.9113147000317,1623.9113147000317,1623.9113147000317,0.017654199968092144,33.0,-188.0,1,0,0,0.8711439000908285,'click_2',1.4199991710484028e-05,0.014327600016258657,,,,15_ctrl,001,control,39,f,14,1,ari,2024-02-09_17h44.19.970,CPO_EEG,2022.2.1,58.53913251683247,
stimoli/02.subtle/JF1_Happiness.mp4,happy,subtle,femmina,5,10,1646,926,13,,,,,,,,,,,,,,,,,1,0,1,0,,,,,,,,,0,31,31,12,,,0.1328346999362111,1626.4072828999488,0.1401153999613598,0.0007179999956861138,0.0007179999956861138,1637.1864645000314,1637.1864645000314,0.016354399966076016,176.0,121.0,1,0,0,1.053452800028026,'click_1',1.3899989426136017e-05,1638.2405540000182,0.015458600013516843,0.0012691000010818243,0.0012691000010818243,1638.7424094999442,1638.7424094999442,1638.7424094999442,0.01731819997075945,164.0,106.0,1,0,0,1.0872250999091193,'click_2',1.379998866468668e-05,0.015550500014796853,,,,15_ctrl,001,control,39,f,14,1,ari,2024-02-09_17h44.19.970,CPO_EEG,2022.2.1,58.53913251683247,
stimoli/02.subtle/JF2_Sadness.mp4,sad,subtle,femmina,6,8,1646,926,18,,,,,,,,,,,,,,,,,1,0,1,0,,,,,,,,,0,32,32,17,,,0.1362588000483811,1641.4580093999393,0.14355250005610287,0.0007197000086307526,0.0007197000086307526,1649.79394090001,1649.79394090001,0.016529400018043816,-47.0,-215.0,1,0,0,5.034410399966873,'click_1',1.4100107364356518e-05,1654.8289506,0.015646700048819184,0.0015348000451922417,0.0015348000451922417,1655.3307652999647,1655.3307652999647,1655.3307652999647,0.017497100052423775,-57.0,-213.0,1,0,0,1.4052118000108749,'click_2',1.4299992471933365e-05,0.01563430007081479,,,,15_ctrl,001,control,39,f,14,1,ari,2024-02-09_17h44.19.970,CPO_EEG,2022.2.1,58.53913251683247,
stimoli/02.subtle/JM2_Sadness.mp4,sad,subtle,maschio,8,10,1646,926,20,,,,,,,,,,,,,,,,,1,0,1,0,,,,,,,,,0,33,33,19,,,0.13237090001348406,1658.360403400031,0.13958140008617193,0.0007293000817298889,0.0007293000817298889,1668.9404058000073,1668.9404058000073,0.016581100062467158,-30.0,-147.0,1,0,0,2.057216600049287,'click_1',1.4199991710484028e-05,1670.9982055999571,0.01566659996751696,0.001531899906694889,0.001531899906694889,1671.5000772000058,1671.5000772000058,1671.5000772000058,0.017529499949887395,-31.0,-139.0,1,0,0,1.154409100068733,'click_2',1.3999990187585354e-05,0.015342499944381416,,,,15_ctrl,001,control,39,f,14,1,ari,2024-02-09_17h44.19.970,CPO_EEG,2022.2.1,58.53913251683247,
stimoli/01.full/M03-Fear-Face Forward.mp4,fear,full,maschio,4,6,720,576,32,,,,,,,,,,,,,,,,,1,0,1,0,,,,,,,,,0,34,34,31,,,0.12981329998001456,1674.276524899993,0.13719159993343055,0.0006916000274941325,0.0006916000274941325,1680.257962099975,1680.257962099975,0.016595200053416193,42.0,-194.0,1,0,0,1.120227999985218,'click_1',1.4999997802078724e-05,1681.3785336000146,0.015411300002597272,0.0016391000244766474,0.0016391000244766474,1681.8806085999822,1681.8806085999822,1681.8806085999822,0.017483999952673912,37.0,-190.0,1,0,0,0.6351943999761716,'click_2',1.4599994756281376e-05,0.015572200063616037,,,,15_ctrl,001,control,39,f,14,1,ari,2024-02-09_17h44.19.970,CPO_EEG,2022.2.1,58.53913251683247,
stimoli/01.full/F01-Anger-Face Forward.mp4,angry,full,femmina,1,6,720,576,33,,,,,,,,,,,,,,,,,1,0,1,0,,,,,,,,,0,35,35,32,,,0.13128860003780574,1684.1393809999572,0.13862570002675056,0.0007575999479740858,0.0007575999479740858,1690.1201120000333,1690.1201120000333,0.01638069993350655,-20.0,103.0,1,0,0,2.1745166999753565,'click_1',1.309998333454132e-05,1692.2952972999774,0.015487700002267957,0.001249499968253076,0.001249499968253076,1692.7971367000137,1692.7971367000137,1692.7971367000137,0.017344400053843856,-23.0,99.0,1,0,0,1.0370600000023842,'click_2',1.880002673715353e-05,0.015551400021649897,,,,15_ctrl,001,control,39,f,14,1,ari,2024-02-09_17h44.19.970,CPO_EEG,2022.2.1,58.53913251683247,
stimoli/01.full/F03-Surprise-Face Forward.mp4,surprised,full,femmina,2,6,720,576,50,,,,,,,,,,,,,,,,,1,0,1,0,,,,,,,,,0,36,36,49,,,0.1313897999934852,1695.4575831999537,0.13869659998454154,0.0007194000063464046,0.0007194000063464046,1701.4386734999716,1701.4386734999716,0.01628149999305606,47.0,-193.0,1,0,0,0.886172299971804,'click_1',1.379998866468668e-05,1702.32552329998,0.015461500035598874,0.0013179000234231353,0.0013179000234231353,1702.8273310000077,1702.8273310000077,1702.8273310000077,0.017273200093768537,39.0,-199.0,1,0,0,1.003626300022006,'click_2',1.9600032828748226e-05,0.015456799999810755,,,,15_ctrl,001,control,39,f,14,1,ari,2024-02-09_17h44.19.970,CPO_EEG,2022.2.1,58.53913251683247,
stimoli/01.full/F01-Joy-Face Forward.mp4,happy,full,femmina,1,6,720,576,41,,,,,,,,,,,,,,,,,1,0,1,0,,,,,,,,,0,37,37,40,,,0.13142530003096908,1705.454716200009,0.13888600002974272,0.00067839992698282,0.00067839992698282,1711.4358920999803,1711.4358920999803,0.016387099982239306,152.0,108.0,1,0,0,1.0872009000740945,'click_1',1.4099990949034691e-05,1712.5236507999944,0.01543519995175302,0.0013165000127628446,0.0013165000127628446,1713.0255100999493,1713.0255100999493,1713.0255100999493,0.017283099936321378,166.0,100.0,1,0,0,1.10398850007914,'click_2',1.3999990187585354e-05,0.015654999995604157,,,,15_ctrl,001,control,39,f,14,1,ari,2024-02-09_17h44.19.970,CPO_EEG,2022.2.1,58.53913251683247,
stimoli/02.subtle/JF1_Sadness.mp4,sad,subtle,femmina,5,10,1646,926,17,,,,,,,,,,,,,,,,,1,0,1,0,,,,,,,,,0,38,38,16,,,0.13488739996682853,1715.7566142999567,0.14223529992159456,0.0007727999472990632,0.0007727999472990632,1726.5352757000364,1726.5352757000364,0.0164736999431625,-33.0,-204.0,1,0,0,2.894067700020969,'click_1',1.3899989426136017e-05,1729.430093199946,0.015650699962861836,0.0016461999621242285,0.0016461999621242285,1729.9319613999687,1729.9319613999687,1729.9319613999687,0.017500999965704978,-34.0,-193.0,1,0,0,0.8529689999995753,'click_2',1.3999990187585354e-05,0.015561099979095161,,,,15_ctrl,001,control,39,f,14,1,ari,2024-02-09_17h44.19.970,CPO_EEG,2022.2.1,58.53913251683247,
stimoli/02.subtle/JM1_Happiness.mp4,happy,subtle,maschio,7,10,1646,926,15,,,,,,,,,,,,,,,,,1,0,1,0,,,,,,,,,0,39,39,14,,,0.13108469999860972,1732.408205499989,0.138372499961406,0.0006781000411137938,0.0006781000411137938,1742.7890817000298,1742.7890817000298,0.016536000068299472,148.0,24.0,1,0,0,2.275261199916713,'click_1',1.7999904230237007e-05,1745.064798800042,0.015558399958536029,0.0012454999377951026,0.0012454999377951026,1745.5664766000118,1745.5664766000118,1745.5664766000118,0.01726240001153201,145.0,26.0,1,0,0,0.9535561000229791,'click_2',1.4099990949034691e-05,0.015435799956321716,,,,15_ctrl,001,control,39,f,14,1,ari,2024-02-09_17h44.19.970,CPO_EEG,2022.2.1,58.53913251683247,
stimoli/02.subtle/JF2_Fear.mp4,fear,subtle,femmina,6,10,1646,926,2,,,,,,,,,,,,,,,,,1,0,1,0,,,,,,,,,0,40,40,1,,,0.13725299993529916,1748.1493468999397,0.14452949992846698,0.000726299942471087,0.000726299942471087,1758.5238382000243,1758.5238382000243,0.016373799997381866,-80.0,-60.0,1,0,0,2.141161200008355,'click_1',1.4199991710484028e-05,1760.665511499974,0.015429700026288629,0.0015359999379143119,0.0015359999379143119,1761.1674865999958,1761.1674865999958,1761.1674865999958,0.017419800045900047,-77.0,-62.0,1,0,0,0.71901360002812,'click_2',1.4300108887255192e-05,0.015483400085940957,,,,15_ctrl,001,control,39,f,14,1,ari,2024-02-09_17h44.19.970,CPO_EEG,2022.2.1,58.53913251683247,
stimoli/01.full/F03-Sadness-Face Forward.mp4,sad,full,femmina,2,6,720,576,46,,,,,,,,,,,,,,,,,1,0,1,0,,,,,,,,,0,41,41,45,,,0.13136340002529323,1763.510135199991,0.1386766000650823,0.0007329999934881926,0.0007329999934881926,1769.4912278000265,1769.4912278000265,0.016548599931411445,-38.0,-208.0,1,0,0,2.057483399985358,'click_1',1.4099990949034691e-05,1771.54911849997,0.015458400011993945,0.0016849000239744782,0.0016849000239744782,1772.0512089999393,1772.0512089999393,1772.0512089999393,0.017568400013260543,-36.0,-191.0,1,0,0,0.6196940999943763,'click_2',1.3599987141788006e-05,0.01433579996228218,,,,15_ctrl,001,control,39,f,14,1,ari,2024-02-09_17h44.19.970,CPO_EEG,2022.2.1,58.53913251683247,
stimoli/01.full/M03-Neutral-Face Forward.mp4,neutral,full,maschio,4,6,720,576,56,,,,,,,,,,,,,,,,,1,0,1,0,,,,,,,,,0,42,42,55,,,0.13037799997255206,1774.2935046999482,0.13772800005972385,0.0007318999851122499,0.0007318999851122499,1780.2734266000334,1780.2734266000334,0.01638509996701032,0.0,0.0,1,0,0,0.5681911999126896,'click_1',1.4299992471933365e-05,1780.842138899956,0.015459400019608438,0.0012582000344991684,0.0012582000344991684,1781.3439790999983,1781.3439790999983,1781.3439790999983,0.01730059995315969,4.0,-4.0,1,0,0,0.7524783000117168,'click_2',1.4699995517730713e-05,0.015658700023777783,,,,15_ctrl,001,control,39,f,14,1,ari,2024-02-09_17h44.19.970,CPO_EEG,2022.2.1,58.53913251683247,
stimoli/02.subtle/JM2_Anger.mp4,angry,subtle,maschio,8,10,1646,926,8,,,,,,,,,,,,,,,,,1,0,1,0,,,,,,,,,0,43,43,7,,,0.13345520000439137,1783.7218976999866,0.14064420002978295,0.0007094000466167927,0.0007094000466167927,1794.6680419000331,1794.6680419000331,0.016480699996463954,-29.0,140.0,1,0,0,2.258046399918385,'click_1',1.4199991710484028e-05,1796.9265850000083,0.015401600045152009,0.0014540000120177865,0.0014540000120177865,1797.4285349999554,1797.4285349999554,1797.4285349999554,0.017366599990054965,-19.0,147.0,1,0,0,0.6857354999519885,'click_2',1.4199991710484028e-05,0.015369600034318864,,,,15_ctrl,001,control,39,f,14,1,ari,2024-02-09_17h44.19.970,CPO_EEG,2022.2.1,58.53913251683247,
stimoli/01.full/F03-Joy-Face Forward.mp4,happy,full,femmina,2,6,720,576,42,,,,,,,,,,,,,,,,,1,0,1,0,,,,,,,,,0,44,44,41,,,0.13052190002053976,1799.7370500999968,0.13785870000720024,0.0007080999203026295,0.0007080999203026295,1805.7176255999366,1805.7176255999366,0.016438899911008775,170.0,107.0,1,0,0,1.5721145999850705,'click_1',1.4399993233382702e-05,1807.2902709000045,0.015461900038644671,0.001514800009317696,0.001514800009317696,1807.7923401000444,1807.7923401000444,1807.7923401000444,0.017551600001752377,169.0,103.0,1,0,0,0.8366385999834165,'click_2',1.4400109648704529e-05,0.015323200030252337,,,,15_ctrl,001,control,39,f,14,1,ari,2024-02-09_17h44.19.970,CPO_EEG,2022.2.1,58.53913251683247,
stimoli/02.subtle/JM2_Surprise.mp4,surprised,subtle,maschio,8,10,1646,926,24,,,,,,,,,,,,,,,,,1,0,1,0,,,,,,,,,0,45,45,23,,,0.1324842000612989,1810.2535281999735,0.13972890004515648,0.0007267000619322062,0.0007267000619322062,1821.1854939999757,1821.1854939999757,0.016400700085796416,148.0,24.0,1,0,0,6.122963299974799,'click_1',1.4099990949034691e-05,1827.3092753000092,0.015624799998477101,0.0014684000052511692,0.0014684000052511692,1827.8110206000274,1827.8110206000274,1827.8110206000274,0.01737889996729791,23.0,-140.0,1,0,0,1.2048544000135735,'click_2',1.4999997802078724e-05,0.015372000052593648,,,,15_ctrl,001,control,39,f,14,1,ari,2024-02-09_17h44.19.970,CPO_EEG,2022.2.1,58.53913251683247,
stimoli/02.subtle/JM2_Neutral.mp4,neutral,subtle,maschio,8,10,1646,926,28,,,,,,,,,,,,,,,,,1,0,1,0,,,,,,,,,0,46,46,27,,,0.13244850002229214,1830.6404799999436,0.13963570003397763,0.0007099000504240394,0.0007099000504240394,1841.58744449995,1841.58744449995,0.016545700025744736,-1.0,-3.0,1,0,0,1.6890952999237925,'click_1',1.4499993994832039e-05,1843.2770531999413,0.01556420000270009,0.0014803999802097678,0.0014803999802097678,1843.779032999999,1843.779032999999,1843.779032999999,0.01753199996892363,-5.0,-4.0,1,0,0,0.5185368000529706,'click_2',1.3699987903237343e-05,0.015609800000675023,,,,15_ctrl,001,control,39,f,14,1,ari,2024-02-09_17h44.19.970,CPO_EEG,2022.2.1,58.53913251683247,
stimoli/01.full/M02-Fear-Face Forward.mp4,fear,full,maschio,3,6,720,576,31,,,,,,,,,,,,,,,,,1,0,1,0,,,,,,,,,0,47,47,30,,,0.13164979999419302,1845.921247099992,0.13894480001181364,0.0006898000137880445,0.0006898000137880445,1851.9012277999427,1851.9012277999427,0.01642949995584786,-83.0,-118.0,1,0,0,1.6888795999111608,'click_1',1.3599987141788006e-05,1853.5909160999581,0.01575830008368939,0.0015054000541567802,0.0015054000541567802,1854.0925569999963,1854.0925569999963,1854.0925569999963,0.017443599994294345,-76.0,-121.0,1,0,0,0.8028887999244034,'click_2',1.3199984095990658e-05,0.015562499989755452,,,,15_ctrl,001,control,39,f,14,1,ari,2024-02-09_17h44.19.970,CPO_EEG,2022.2.1,58.53913251683247,
stimoli/01.full/M03-Disgust-Face Forward.mp4,disgusted,full,maschio,4,6,720,576,40,,,,,,,,,,,,,,,,,1,0,1,0,,,,,,,,,0,48,48,39,,,0.13246240001171827,1856.5201329999836,0.1398045999230817,0.0007432999555021524,0.0007432999555021524,1862.4998691999353,1862.4998691999353,0.016510399989783764,-157.0,105.0,1,0,0,1.7233741000527516,'click_1',1.4199991710484028e-05,1864.2237832000246,0.015557199949398637,0.0013599999947473407,0.0013599999947473407,1864.7256315000122,1864.7256315000122,1864.7256315000122,0.017392899957485497,-166.0,109.0,1,0,0,0.8863080999581143,'click_2',1.4299992471933365e-05,0.015381500008516014,,,,15_ctrl,001,control,39,f,14,1,ari,2024-02-09_17h44.19.970,CPO_EEG,2022.2.1,58.53913251683247,
stimoli/01.full/F03-Neutral-Face Forward.mp4,neutral,full,femmina,2,6,720,576,54,,,,,,,,,,,,,,,,,1,0,1,0,,,,,,,,,0,49,49,53,,,0.131311499979347,1867.2354150000028,0.13870430004317313,0.000700299977324903,0.000700299977324903,1873.2162778000347,1873.2162778000347,0.016366800060495734,-29.0,-148.0,1,0,0,3.9649190000491217,'click_1',1.3300101272761822e-05,1877.181937300018,0.015623100101947784,0.0015079000731930137,0.0015079000731930137,1877.6838187000249,1877.6838187000249,1877.6838187000249,0.017488800105638802,-26.0,-146.0,1,0,0,0.8365191000048071,'click_2',1.4099990949034691e-05,0.015485399984754622,,,,15_ctrl,001,control,39,f,14,1,ari,2024-02-09_17h44.19.970,CPO_EEG,2022.2.1,58.53913251683247,
stimoli/02.subtle/JM1_Neutral.mp4,neutral,subtle,maschio,7,10,1646,926,27,,,,,,,,,,,,,,,,,1,0,1,0,,,,,,,,,0,50,50,26,,,0.13236729998607188,1880.1447738000425,0.13968110003042966,0.0007288000779226422,0.0007288000779226422,1890.5241903000278,1890.5241903000278,0.01645310001913458,0.0,0.0,1,0,0,0.4510495000286028,'click_1',2.6700086891651154e-05,1890.9758594000014,0.015485899988561869,0.001518900040537119,0.001518900040537119,1891.4779148999369,1891.4779148999369,1891.4779148999369,0.01756180007942021,0.0,-3.0,1,0,0,0.7189161999849603,'click_2',1.3899989426136017e-05,0.01582830003462732,,,,15_ctrl,001,control,39,f,14,1,ari,2024-02-09_17h44.19.970,CPO_EEG,2022.2.1,58.53913251683247,
stimoli/02.subtle/JF1_Surprise.mp4,surprised,subtle,femmina,5,10,1646,926,21,,,,,,,,,,,,,,,,,1,0,1,0,,,,,,,,,0,51,51,20,,,0.13378320005722344,1893.8225071999477,0.14087140001356602,0.0007016999879851937,0.0007016999879851937,1904.6026596999727,1904.6026596999727,0.01649060007184744,40.0,-205.0,1,0,0,2.3251340000424534,'click_1',1.3499986380338669e-05,1906.9282529000193,0.015496499952860177,0.0013835999416187406,0.0013835999416187406,1907.430199699942,1907.430199699942,1907.430199699942,0.01743709994480014,32.0,-197.0,1,0,0,0.9536185999168083,'click_2',1.3999990187585354e-05,0.015633199946023524,,,,15_ctrl,001,control,39,f,14,1,ari,2024-02-09_17h44.19.970,CPO_EEG,2022.2.1,58.53913251683247,
stimoli/02.subtle/JF1_Anger.mp4,angry,subtle,femmina,5,10,1646,926,5,,,,,,,,,,,,,,,,,1,0,1,0,,,,,,,,,0,52,52,4,,,0.134181399946101,1910.0099884000374,0.14139759994577616,0.0007262000581249595,0.0007262000581249595,1920.7898628000403,1920.7898628000403,0.01641909999307245,-86.0,-124.0,1,0,0,1.7728004000382498,'click_1',1.3699987903237343e-05,1922.5633868000004,0.015624499996192753,0.0015032000374048948,0.0015032000374048948,1923.0652624999639,1923.0652624999639,1923.0652624999639,0.017485399963334203,-88.0,-117.0,1,0,0,0.6859720998909324,'click_2',1.379998866468668e-05,0.015523000038228929,,,,15_ctrl,001,control,39,f,14,1,ari,2024-02-09_17h44.19.970,CPO_EEG,2022.2.1,58.53913251683247,
stimoli/01.full/F01-Disgust-Face Forward.mp4,disgusted,full,femmina,1,6,720,576,37,,,,,,,,,,,,,,,,,1,0,1,0,,,,,,,,,0,53,53,36,,,0.12745509995147586,1925.3707814000081,0.13478680001571774,0.0007558999350294471,0.0007558999350294471,1931.3877316999715,1931.3877316999715,0.016347600030712783,-115.0,77.0,1,0,0,1.6894600000232458,'click_1',1.4699995517730713e-05,1933.0780965000158,0.015678900061175227,0.0015326000284403563,0.0015326000284403563,1933.5798582000425,1933.5798582000425,1933.5798582000425,0.017436000052839518,-121.0,74.0,1,0,0,0.9698297999566421,'click_2',1.3999990187585354e-05,0.01583509996999055,,,,15_ctrl,001,control,39,f,14,1,ari,2024-02-09_17h44.19.970,CPO_EEG,2022.2.1,58.53913251683247,
stimoli/01.full/F01-Neutral-Face Forward.mp4,neutral,full,femmina,1,6,720,576,53,,,,,,,,,,,,,,,,,1,0,1,0,,,,,,,,,0,54,54,52,,,0.13335350004490465,1936.1752398000099,0.14066120004281402,0.0007227000314742327,0.0007227000314742327,1942.153970799991,1942.153970799991,0.016576800029724836,3.0,0.0,1,0,0,1.1538821998983622,'click_1',1.3999990187585354e-05,1943.308469700045,0.015594600001350045,0.001711399992927909,0.001711399992927909,1943.8105972999474,1943.8105972999474,1943.8105972999474,0.017754500033333898,3.0,-1.0,1,0,0,0.5683655999600887,'click_2',1.379998866468668e-05,0.01555390004068613,,,,15_ctrl,001,control,39,f,14,1,ari,2024-02-09_17h44.19.970,CPO_EEG,2022.2.1,58.53913251683247,
stimoli/02.subtle/JM1_Sadness.mp4,sad,subtle,maschio,7,10,1646,926,19,,,,,,,,,,,,,,,,,1,0,1,0,,,,,,,,,0,55,55,18,,,0.1328846999676898,1946.003884500009,0.14013580000028014,0.0007245999295264482,0.0007245999295264482,1956.382515199948,1956.382515199948,0.016419499996118248,-27.0,-148.0,1,0,0,2.626459200051613,'click_1',1.4299992471933365e-05,1959.0094229000388,0.015385899925604463,0.0012154999421909451,0.0012154999421909451,1959.5111859999597,1959.5111859999597,1959.5111859999597,0.017200900008901954,-38.0,-144.0,1,0,0,0.7859731999924406,'click_2',1.3299984857439995e-05,0.015620700083673,,,,15_ctrl,001,control,39,f,14,1,ari,2024-02-09_17h44.19.970,CPO_EEG,2022.2.1,58.53913251683247,
,,,,,,,,,,,,,,,,,,,,,,,,,1,0,1,0,,,,,,,,,,,,,,,,,,,,,,,,,,,,,,,,,,,,,,,,,,,,,,,,,,,15_ctrl,001,control,39,f,14,1,ari,2024-02-09_17h44.19.970,CPO_EEG,2022.2.1,58.53913251683247,
