"Wheel.y","Wheel.x","Wheel.task","Wheel.name","Wheel.angle","Video.set","Video.name","Video.id","Video.gender","Video.emotion","Trt.physio","Trt.botulino","Surg.type","Surg.smile","Surg.inter","Surg.date","Resp.rt","Resp.level","Resp.intensity","Resp.diff","Resp.correct","Resp.category","Resp.angle","Pt.study","Pt.id","Pt.group","Pt.gender","Pt.code","Pt.age","Plsy.locus.note","Plsy.locus","Plsy.act.sup3","Plsy.act.inf2","Exp.trial","Exp.notes","Exp.date","Exp.bloch","Asmt.tas.20","Asmt.sunnybrook.note","Asmt.sunnybrook","Asmt.omft","Asmt.lpost.tot","Asmt.lpost.15","Asmt.lpost.14","Asmt.lpost.13","Asmt.lpost.12","Asmt.lpost.11","Asmt.lpost.10","Asmt.lpost.09","Asmt.lpost.08","Asmt.lpost.07","Asmt.lpost.06","Asmt.lpost.05","Asmt.lpost.04","Asmt.lpost.03","Asmt.lpost.02","Asmt.lpost.01","Asmt.fdi.sociale","Asmt.fdi.fisica","Asmt.aq"
-198,37,"task","GW1",281.25,"ADFES","M03-Surprise-Face Forward.mp4","4","male","surprise",NA,"",NA,NA,"",NA,5182.7,"3_medium_hight",201.427406278292,0.670000000000016,1,"surprise",280.58,13,"12","control","female","2_control",67,"",NA,"","",1,"",2023-03-10,0,58,NA,NA,0.685,66,53.99,69.93,50.73,62.04,11.54,0.25,68.38,54.45,58.07,53.03,6.36,57.11,11.74,5.95,59.03,NA,NA,17
3,-6,"task","GW1",258.75,"JeFEE","JM1_Sadness.mp4","7","male","sadness",NA,"",NA,NA,"",NA,13865.5,"0_neutrality",6.70820393249937,105.32,0,"disgust",153.43,13,"12","control","female","2_control",67,"",NA,"","",2,"",2023-03-10,0,58,NA,NA,0.685,66,53.99,69.93,50.73,62.04,11.54,0.25,68.38,54.45,58.07,53.03,6.36,57.11,11.74,5.95,59.03,NA,NA,17
167,-99,"task","GW1",NA,"JeFEE","JM1_Neutral.mp4","7","male","neutrality",NA,"",NA,NA,"",NA,11193.4,"3_medium_hight",194.139125371472,NA,0,"contempt",120.66,13,"12","control","female","2_control",67,"",NA,"","",3,"",2023-03-10,0,58,NA,NA,0.685,66,53.99,69.93,50.73,62.04,11.54,0.25,68.38,54.45,58.07,53.03,6.36,57.11,11.74,5.95,59.03,NA,NA,17
106,-172,"task","GW1",146.25,"ADFES","M03-Disgust-Face Forward.mp4","4","male","disgust",NA,"",NA,NA,"",NA,4627.4,"3_medium_hight",202.039600078796,-2.10999999999999,1,"disgust",148.36,13,"12","control","female","2_control",67,"",NA,"","",4,"",2023-03-10,0,58,NA,NA,0.685,66,53.99,69.93,50.73,62.04,11.54,0.25,68.38,54.45,58.07,53.03,6.36,57.11,11.74,5.95,59.03,NA,NA,17
-169,112,"task","GW1",NA,"ADFES","M03-Neutral-Face Forward.mp4","4","male","neutrality",NA,"",NA,NA,"",NA,1574.9,"3_medium_hight",202.743680542699,NA,0,"interest",303.53,13,"12","control","female","2_control",67,"",NA,"","",5,"",2023-03-10,0,58,NA,NA,0.685,66,53.99,69.93,50.73,62.04,11.54,0.25,68.38,54.45,58.07,53.03,6.36,57.11,11.74,5.95,59.03,NA,NA,17
-180,-117,"task","GW1",146.25,"JeFEE","JF1_Disgust.mp4","5","female","disgust",NA,"",NA,NA,"",NA,5805.3,"4_hight",214.683487953778,-90.73,0,"fear",236.98,13,"12","control","female","2_control",67,"",NA,"","",6,"",2023-03-10,0,58,NA,NA,0.685,66,53.99,69.93,50.73,62.04,11.54,0.25,68.38,54.45,58.07,53.03,6.36,57.11,11.74,5.95,59.03,NA,NA,17
-206,45,"task","GW1",236.25,"ADFES","M02-Fear-Face Forward.mp4","3","male","fear",NA,"",NA,NA,"",NA,1540,"4_hight",210.857771969638,-46.07,0,"surprise",282.32,13,"12","control","female","2_control",67,"",NA,"","",7,"",2023-03-10,0,58,NA,NA,0.685,66,53.99,69.93,50.73,62.04,11.54,0.25,68.38,54.45,58.07,53.03,6.36,57.11,11.74,5.95,59.03,NA,NA,17
41,203,"task","GW1",33.75,"JeFEE","JM1_Happiness.mp4","7","male","happiness",NA,"",NA,NA,"",NA,5749.9,"3_medium_hight",207.099010137663,22.33,0,"satisfaction",11.42,13,"12","control","female","2_control",67,"",NA,"","",8,"",2023-03-10,0,58,NA,NA,0.685,66,53.99,69.93,50.73,62.04,11.54,0.25,68.38,54.45,58.07,53.03,6.36,57.11,11.74,5.95,59.03,NA,NA,17
-174,-114,"task","GW1",236.25,"JeFEE","JF1_Fear.mp4","5","female","fear",NA,"",NA,NA,"",NA,3637.8,"3_medium_hight",208.019229880317,-0.519999999999982,1,"fear",236.77,13,"12","control","female","2_control",67,"",NA,"","",9,"",2023-03-10,0,58,NA,NA,0.685,66,53.99,69.93,50.73,62.04,11.54,0.25,68.38,54.45,58.07,53.03,6.36,57.11,11.74,5.95,59.03,NA,NA,17
-168,-118,"task","GW1",236.25,"ADFES","F03-Fear-Face Forward.mp4","2","female","fear",NA,"",NA,NA,"",NA,4557.7,"3_medium_hight",205.299780808456,1.33000000000004,1,"fear",234.92,13,"12","control","female","2_control",67,"",NA,"","",10,"",2023-03-10,0,58,NA,NA,0.685,66,53.99,69.93,50.73,62.04,11.54,0.25,68.38,54.45,58.07,53.03,6.36,57.11,11.74,5.95,59.03,NA,NA,17
192,-36,"task","GW1",101.25,"ADFES","F01-Anger-Face Forward.mp4","1","female","anger",NA,"",NA,NA,"",NA,5993.6,"3_medium_hight",195.345847153196,0.629999999999995,1,"anger",100.62,13,"12","control","female","2_control",67,"",NA,"","",11,"",2023-03-10,0,58,NA,NA,0.685,66,53.99,69.93,50.73,62.04,11.54,0.25,68.38,54.45,58.07,53.03,6.36,57.11,11.74,5.95,59.03,NA,NA,17
-39,-185,"task","GW1",146.25,"JeFEE","JM2_Disgust.mp4","8","male","disgust",NA,"",NA,NA,"",NA,8028.6,"3_medium_hight",189.066125998287,-45.65,0,"guilt",191.9,13,"12","control","female","2_control",67,"",NA,"","",12,"",2023-03-10,0,58,NA,NA,0.685,66,53.99,69.93,50.73,62.04,11.54,0.25,68.38,54.45,58.07,53.03,6.36,57.11,11.74,5.95,59.03,NA,NA,17
-206,40,"task","GW1",281.25,"ADFES","M02-Surprise-Face Forward.mp4","3","male","surprise",NA,"",NA,NA,"",NA,2090.6,"4_hight",209.84756372186,0.259999999999991,1,"surprise",280.99,13,"12","control","female","2_control",67,"",NA,"","",13,"",2023-03-10,0,58,NA,NA,0.685,66,53.99,69.93,50.73,62.04,11.54,0.25,68.38,54.45,58.07,53.03,6.36,57.11,11.74,5.95,59.03,NA,NA,17
-209,36,"task","GW1",236.25,"ADFES","M03-Fear-Face Forward.mp4","4","male","fear",NA,"",NA,NA,"",NA,8167.9,"4_hight",212.077815907275,-43.52,0,"surprise",279.77,13,"12","control","female","2_control",67,"",NA,"","",14,"",2023-03-10,0,58,NA,NA,0.685,66,53.99,69.93,50.73,62.04,11.54,0.25,68.38,54.45,58.07,53.03,6.36,57.11,11.74,5.95,59.03,NA,NA,17
112,-164,"task","GW1",146.25,"JeFEE","JF2_Disgust.mp4","6","female","disgust",NA,"",NA,NA,"",NA,6781.1,"3_medium_hight",198.595065396903,0.580000000000041,1,"disgust",145.67,13,"12","control","female","2_control",67,"",NA,"","",15,"",2023-03-10,0,58,NA,NA,0.685,66,53.99,69.93,50.73,62.04,11.54,0.25,68.38,54.45,58.07,53.03,6.36,57.11,11.74,5.95,59.03,NA,NA,17
-171,114,"task","GW1",236.25,"JeFEE","JF2_Fear.mp4","6","female","fear",NA,"",NA,NA,"",NA,9638.6,"3_medium_hight",205.516422701447,-67.44,0,"interest",303.69,13,"12","control","female","2_control",67,"",NA,"","",16,"",2023-03-10,0,58,NA,NA,0.685,66,53.99,69.93,50.73,62.04,11.54,0.25,68.38,54.45,58.07,53.03,6.36,57.11,11.74,5.95,59.03,NA,NA,17
107,-177,"task","GW1",146.25,"ADFES","F03-Disgust-Face Forward.mp4","2","female","disgust",NA,"",NA,NA,"",NA,6432.8,"3_medium_hight",206.828431314459,-2.59999999999997,1,"disgust",148.85,13,"12","control","female","2_control",67,"",NA,"","",17,"",2023-03-10,0,58,NA,NA,0.685,66,53.99,69.93,50.73,62.04,11.54,0.25,68.38,54.45,58.07,53.03,6.36,57.11,11.74,5.95,59.03,NA,NA,17
-193,-30,"task","GW1",NA,"JeFEE","JF2_Neutral.mp4","6","female","neutrality",NA,"",NA,NA,"",NA,3442.7,"3_medium_hight",195.317689931045,NA,0,"sadness",261.16,13,"12","control","female","2_control",67,"",NA,"","",18,"",2023-03-10,0,58,NA,NA,0.685,66,53.99,69.93,50.73,62.04,11.54,0.25,68.38,54.45,58.07,53.03,6.36,57.11,11.74,5.95,59.03,NA,NA,17
-164,114,"task","GW1",NA,"ADFES","M02-Neutral-Face Forward.mp4","3","male","neutrality",NA,"",NA,NA,"",NA,3965.3,"3_medium_hight",199.729817503547,NA,0,"interest",304.8,13,"12","control","female","2_control",67,"",NA,"","",19,"",2023-03-10,0,58,NA,NA,0.685,66,53.99,69.93,50.73,62.04,11.54,0.25,68.38,54.45,58.07,53.03,6.36,57.11,11.74,5.95,59.03,NA,NA,17
-40,-198,"task","GW1",236.25,"JeFEE","JM2_Fear.mp4","8","male","fear",NA,"",NA,NA,"",NA,4119,"3_medium_hight",202,44.83,0,"guilt",191.42,13,"12","control","female","2_control",67,"",NA,"","",20,"",2023-03-10,0,58,NA,NA,0.685,66,53.99,69.93,50.73,62.04,11.54,0.25,68.38,54.45,58.07,53.03,6.36,57.11,11.74,5.95,59.03,NA,NA,17
-119,-154,"task","GW1",258.75,"ADFES","M02-Sadness-Face Forward.mp4","3","male","sadness",NA,"",NA,NA,"",NA,5596.1,"3_medium_hight",194.62014284241,41.06,0,"shame",217.69,13,"12","control","female","2_control",67,"",NA,"","",21,"",2023-03-10,0,58,NA,NA,0.685,66,53.99,69.93,50.73,62.04,11.54,0.25,68.38,54.45,58.07,53.03,6.36,57.11,11.74,5.95,59.03,NA,NA,17
-172,125,"task","GW1",NA,"ADFES","F03-Neutral-Face Forward.mp4","2","female","neutrality",NA,"",NA,NA,"",NA,3498.4,"4_hight",212.624081420708,NA,0,"interest",306.01,13,"12","control","female","2_control",67,"",NA,"","",22,"",2023-03-10,0,58,NA,NA,0.685,66,53.99,69.93,50.73,62.04,11.54,0.25,68.38,54.45,58.07,53.03,6.36,57.11,11.74,5.95,59.03,NA,NA,17
106,173,"task","GW1",33.75,"ADFES","M03-Joy-Face Forward.mp4","4","male","happiness",NA,"",NA,NA,"",NA,3623.9,"3_medium_hight",202.89159667172,2.25,1,"happiness",31.5,13,"12","control","female","2_control",67,"",NA,"","",23,"",2023-03-10,0,58,NA,NA,0.685,66,53.99,69.93,50.73,62.04,11.54,0.25,68.38,54.45,58.07,53.03,6.36,57.11,11.74,5.95,59.03,NA,NA,17
164,-107,"task","GW1",146.25,"ADFES","F01-Disgust-Face Forward.mp4","1","female","disgust",NA,"",NA,NA,"",NA,6899.7,"3_medium_hight",195.8187937865,23.13,0,"contempt",123.12,13,"12","control","female","2_control",67,"",NA,"","",24,"",2023-03-10,0,58,NA,NA,0.685,66,53.99,69.93,50.73,62.04,11.54,0.25,68.38,54.45,58.07,53.03,6.36,57.11,11.74,5.95,59.03,NA,NA,17
-202,-29,"task","GW1",258.75,"JeFEE","JF1_Sadness.mp4","5","female","sadness",NA,"",NA,NA,"",NA,3617,"3_medium_hight",204.071066052981,-3.07999999999998,1,"sadness",261.83,13,"12","control","female","2_control",67,"",NA,"","",25,"",2023-03-10,0,58,NA,NA,0.685,66,53.99,69.93,50.73,62.04,11.54,0.25,68.38,54.45,58.07,53.03,6.36,57.11,11.74,5.95,59.03,NA,NA,17
-164,112,"task","GW1",NA,"JeFEE","JM2_Neutral.mp4","8","male","neutrality",NA,"",NA,NA,"",NA,5840.4,"3_medium_hight",198.595065396903,NA,0,"interest",304.33,13,"12","control","female","2_control",67,"",NA,"","",26,"",2023-03-10,0,58,NA,NA,0.685,66,53.99,69.93,50.73,62.04,11.54,0.25,68.38,54.45,58.07,53.03,6.36,57.11,11.74,5.95,59.03,NA,NA,17
-205,49,"task","GW1",281.25,"JeFEE","JF2_Surprise.mp4","6","female","surprise",NA,"",NA,NA,"",NA,11115.9,"4_hight",210.774761297457,-2.19,1,"surprise",283.44,13,"12","control","female","2_control",67,"",NA,"","",27,"",2023-03-10,0,58,NA,NA,0.685,66,53.99,69.93,50.73,62.04,11.54,0.25,68.38,54.45,58.07,53.03,6.36,57.11,11.74,5.95,59.03,NA,NA,17
106,180,"task","GW1",33.75,"JeFEE","JF2_Happiness.mp4","6","female","happiness",NA,"",NA,NA,"",NA,3742.4,"3_medium_hight",208.892316756744,3.25999999999999,1,"happiness",30.49,13,"12","control","female","2_control",67,"",NA,"","",28,"",2023-03-10,0,58,NA,NA,0.685,66,53.99,69.93,50.73,62.04,11.54,0.25,68.38,54.45,58.07,53.03,6.36,57.11,11.74,5.95,59.03,NA,NA,17
-199,62,"task","GW1",281.25,"JeFEE","JM1_Surprise.mp4","7","male","surprise",NA,"",NA,NA,"",NA,8412.1,"3_medium_hight",208.43464203438,-6.05000000000001,1,"surprise",287.3,13,"12","control","female","2_control",67,"",NA,"","",29,"",2023-03-10,0,58,NA,NA,0.685,66,53.99,69.93,50.73,62.04,11.54,0.25,68.38,54.45,58.07,53.03,6.36,57.11,11.74,5.95,59.03,NA,NA,17
-35,-186,"task","GW1",258.75,"JeFEE","JM2_Sadness.mp4","8","male","sadness",NA,"",NA,NA,"",NA,4634.5,"3_medium_hight",189.264365372883,68.09,0,"guilt",190.66,13,"12","control","female","2_control",67,"",NA,"","",30,"",2023-03-10,0,58,NA,NA,0.685,66,53.99,69.93,50.73,62.04,11.54,0.25,68.38,54.45,58.07,53.03,6.36,57.11,11.74,5.95,59.03,NA,NA,17
-176,-109,"task","GW1",236.25,"ADFES","F01-Fear-Face Forward.mp4","1","female","fear",NA,"",NA,NA,"",NA,5210.7,"3_medium_hight",207.019322769639,-1.97999999999996,1,"fear",238.23,13,"12","control","female","2_control",67,"",NA,"","",31,"",2023-03-10,0,58,NA,NA,0.685,66,53.99,69.93,50.73,62.04,11.54,0.25,68.38,54.45,58.07,53.03,6.36,57.11,11.74,5.95,59.03,NA,NA,17
-210,32,"task","GW1",281.25,"JeFEE","JM2_Surprise.mp4","8","male","surprise",NA,"",NA,NA,"",NA,8328.5,"4_hight",212.424104093674,2.58999999999997,1,"surprise",278.66,13,"12","control","female","2_control",67,"",NA,"","",32,"",2023-03-10,0,58,NA,NA,0.685,66,53.99,69.93,50.73,62.04,11.54,0.25,68.38,54.45,58.07,53.03,6.36,57.11,11.74,5.95,59.03,NA,NA,17
111,-173,"task","GW1",146.25,"ADFES","M02-Disgust-Face Forward.mp4","3","male","disgust",NA,"",NA,NA,"",NA,6251.5,"3_medium_hight",205.548047910945,-1.06999999999996,1,"disgust",147.32,13,"12","control","female","2_control",67,"",NA,"","",33,"",2023-03-10,0,58,NA,NA,0.685,66,53.99,69.93,50.73,62.04,11.54,0.25,68.38,54.45,58.07,53.03,6.36,57.11,11.74,5.95,59.03,NA,NA,17
-32,-194,"task","GW1",258.75,"ADFES","M03-Sadness-Face Forward.mp4","4","male","sadness",NA,"",NA,NA,"",NA,2153.4,"3_medium_hight",196.62146373171,69.38,0,"guilt",189.37,13,"12","control","female","2_control",67,"",NA,"","",34,"",2023-03-10,0,58,NA,NA,0.685,66,53.99,69.93,50.73,62.04,11.54,0.25,68.38,54.45,58.07,53.03,6.36,57.11,11.74,5.95,59.03,NA,NA,17
118,184,"task","GW1",33.75,"ADFES","F03-Joy-Face Forward.mp4","2","female","happiness",NA,"",NA,NA,"",NA,2620.3,"4_hight",218.586367369971,1.07999999999998,1,"happiness",32.67,13,"12","control","female","2_control",67,"",NA,"","",35,"",2023-03-10,0,58,NA,NA,0.685,66,53.99,69.93,50.73,62.04,11.54,0.25,68.38,54.45,58.07,53.03,6.36,57.11,11.74,5.95,59.03,NA,NA,17
-202,51,"task","GW1",281.25,"ADFES","F01-Surprise-Face Forward.mp4","1","female","surprise",NA,"",NA,NA,"",NA,5687,"3_medium_hight",208.338666598402,-2.92000000000002,1,"surprise",284.17,13,"12","control","female","2_control",67,"",NA,"","",36,"",2023-03-10,0,58,NA,NA,0.685,66,53.99,69.93,50.73,62.04,11.54,0.25,68.38,54.45,58.07,53.03,6.36,57.11,11.74,5.95,59.03,NA,NA,17
-38,-209,"task","GW1",258.75,"ADFES","F03-Sadness-Face Forward.mp4","2","female","sadness",NA,"",NA,NA,"",NA,3122,"4_hight",212.42645786248,68.45,0,"guilt",190.3,13,"12","control","female","2_control",67,"",NA,"","",37,"",2023-03-10,0,58,NA,NA,0.685,66,53.99,69.93,50.73,62.04,11.54,0.25,68.38,54.45,58.07,53.03,6.36,57.11,11.74,5.95,59.03,NA,NA,17
-179,119,"task","GW1",NA,"ADFES","F01-Neutral-Face Forward.mp4","1","female","neutrality",NA,"",NA,NA,"",NA,3136,"4_hight",214.946504972749,NA,0,"interest",303.62,13,"12","control","female","2_control",67,"",NA,"","",38,"",2023-03-10,0,58,NA,NA,0.685,66,53.99,69.93,50.73,62.04,11.54,0.25,68.38,54.45,58.07,53.03,6.36,57.11,11.74,5.95,59.03,NA,NA,17
-168,111,"task","GW1",NA,"JeFEE","JF1_Neutral.mp4","5","female","neutrality",NA,"",NA,NA,"",NA,11026.3,"3_medium_hight",201.357890334598,NA,0,"interest",303.45,13,"12","control","female","2_control",67,"",NA,"","",39,"",2023-03-10,0,58,NA,NA,0.685,66,53.99,69.93,50.73,62.04,11.54,0.25,68.38,54.45,58.07,53.03,6.36,57.11,11.74,5.95,59.03,NA,NA,17
-192,-44,"task","GW1",258.75,"ADFES","F01-Sadness-Face Forward.mp4","1","female","sadness",NA,"",NA,NA,"",NA,8195.9,"3_medium_hight",196.977156035922,1.66000000000003,1,"sadness",257.09,13,"12","control","female","2_control",67,"",NA,"","",40,"",2023-03-10,0,58,NA,NA,0.685,66,53.99,69.93,50.73,62.04,11.54,0.25,68.38,54.45,58.07,53.03,6.36,57.11,11.74,5.95,59.03,NA,NA,17
175,119,"task","GW1",33.75,"JeFEE","JF1_Happiness.mp4","5","female","happiness",NA,"",NA,NA,"",NA,1463.3,"4_hight",211.627030409634,-22.03,0,"elation",55.78,13,"12","control","female","2_control",67,"",NA,"","",41,"",2023-03-10,0,58,NA,NA,0.685,66,53.99,69.93,50.73,62.04,11.54,0.25,68.38,54.45,58.07,53.03,6.36,57.11,11.74,5.95,59.03,NA,NA,17
103,170,"task","GW1",33.75,"ADFES","M02-Joy-Face Forward.mp4","3","male","happiness",NA,"",NA,NA,"",NA,2027.8,"3_medium_hight",198.768709811177,2.53999999999999,1,"happiness",31.21,13,"12","control","female","2_control",67,"",NA,"","",42,"",2023-03-10,0,58,NA,NA,0.685,66,53.99,69.93,50.73,62.04,11.54,0.25,68.38,54.45,58.07,53.03,6.36,57.11,11.74,5.95,59.03,NA,NA,17
196,-40,"task","GW1",101.25,"ADFES","M03-Anger-Face Forward.mp4","4","male","anger",NA,"",NA,NA,"",NA,1986,"3_medium_hight",200.0399960008,-0.28000000000003,1,"anger",101.53,13,"12","control","female","2_control",67,"",NA,"","",43,"",2023-03-10,0,58,NA,NA,0.685,66,53.99,69.93,50.73,62.04,11.54,0.25,68.38,54.45,58.07,53.03,6.36,57.11,11.74,5.95,59.03,NA,NA,17
-200,49,"task","GW1",281.25,"ADFES","F03-Surprise-Face Forward.mp4","2","female","surprise",NA,"",NA,NA,"",NA,1574.9,"3_medium_hight",205.915031020079,-2.51999999999998,1,"surprise",283.77,13,"12","control","female","2_control",67,"",NA,"","",44,"",2023-03-10,0,58,NA,NA,0.685,66,53.99,69.93,50.73,62.04,11.54,0.25,68.38,54.45,58.07,53.03,6.36,57.11,11.74,5.95,59.03,NA,NA,17
196,-41,"task","GW1",101.25,"JeFEE","JM1_Anger.mp4","7","male","anger",NA,"",NA,NA,"",NA,5464.3,"3_medium_hight",200.242353162362,-0.560000000000002,1,"anger",101.81,13,"12","control","female","2_control",67,"",NA,"","",45,"",2023-03-10,0,58,NA,NA,0.685,66,53.99,69.93,50.73,62.04,11.54,0.25,68.38,54.45,58.07,53.03,6.36,57.11,11.74,5.95,59.03,NA,NA,17
-171,-119,"task","GW1",101.25,"JeFEE","JF1_Anger.mp4","5","female","anger",NA,"",NA,NA,"",NA,5094.6,"3_medium_hight",208.331466658304,-133.92,0,"fear",235.17,13,"12","control","female","2_control",67,"",NA,"","",46,"",2023-03-10,0,58,NA,NA,0.685,66,53.99,69.93,50.73,62.04,11.54,0.25,68.38,54.45,58.07,53.03,6.36,57.11,11.74,5.95,59.03,NA,NA,17
-205,26,"task","GW1",281.25,"JeFEE","JF1_Surprise.mp4","5","female","surprise",NA,"",NA,NA,"",NA,2139.3,"3_medium_hight",206.642202853144,4.01999999999998,1,"surprise",277.23,13,"12","control","female","2_control",67,"",NA,"","",47,"",2023-03-10,0,58,NA,NA,0.685,66,53.99,69.93,50.73,62.04,11.54,0.25,68.38,54.45,58.07,53.03,6.36,57.11,11.74,5.95,59.03,NA,NA,17
173,-109,"task","GW1",101.25,"JeFEE","JM2_Anger.mp4","8","male","anger",NA,"",NA,NA,"",NA,4390.8,"3_medium_hight",204.474937339518,-20.96,0,"contempt",122.21,13,"12","control","female","2_control",67,"",NA,"","",48,"",2023-03-10,0,58,NA,NA,0.685,66,53.99,69.93,50.73,62.04,11.54,0.25,68.38,54.45,58.07,53.03,6.36,57.11,11.74,5.95,59.03,NA,NA,17
-199,50,"task","GW1",236.25,"JeFEE","JM1_Fear.mp4","7","male","fear",NA,"",NA,NA,"",NA,2097.7,"3_medium_hight",205.185282123256,-47.85,0,"surprise",284.1,13,"12","control","female","2_control",67,"",NA,"","",49,"",2023-03-10,0,58,NA,NA,0.685,66,53.99,69.93,50.73,62.04,11.54,0.25,68.38,54.45,58.07,53.03,6.36,57.11,11.74,5.95,59.03,NA,NA,17
-124,-166,"task","GW1",258.75,"JeFEE","JF2_Sadness.mp4","6","female","sadness",NA,"",NA,NA,"",NA,5171,"3_medium_hight",207.200386100026,41.99,0,"shame",216.76,13,"12","control","female","2_control",67,"",NA,"","",50,"",2023-03-10,0,58,NA,NA,0.685,66,53.99,69.93,50.73,62.04,11.54,0.25,68.38,54.45,58.07,53.03,6.36,57.11,11.74,5.95,59.03,NA,NA,17
183,-127,"task","GW1",146.25,"JeFEE","JM1_Disgust.mp4","7","male","disgust",NA,"",NA,NA,"",NA,6021.8,"4_hight",222.750982040484,21.49,0,"contempt",124.76,13,"12","control","female","2_control",67,"",NA,"","",51,"",2023-03-10,0,58,NA,NA,0.685,66,53.99,69.93,50.73,62.04,11.54,0.25,68.38,54.45,58.07,53.03,6.36,57.11,11.74,5.95,59.03,NA,NA,17
104,-164,"task","GW1",101.25,"ADFES","F03-Anger-Face Forward.mp4","2","female","anger",NA,"",NA,NA,"",NA,8830,"3_medium_hight",194.195777503014,-46.37,0,"disgust",147.62,13,"12","control","female","2_control",67,"",NA,"","",52,"",2023-03-10,0,58,NA,NA,0.685,66,53.99,69.93,50.73,62.04,11.54,0.25,68.38,54.45,58.07,53.03,6.36,57.11,11.74,5.95,59.03,NA,NA,17
199,-47,"task","GW1",101.25,"ADFES","M02-Anger-Face Forward.mp4","3","male","anger",NA,"",NA,NA,"",NA,5665.8,"3_medium_hight",204.474937339518,-2.04000000000002,1,"anger",103.29,13,"12","control","female","2_control",67,"",NA,"","",53,"",2023-03-10,0,58,NA,NA,0.685,66,53.99,69.93,50.73,62.04,11.54,0.25,68.38,54.45,58.07,53.03,6.36,57.11,11.74,5.95,59.03,NA,NA,17
-44,203,"task","GW1",33.75,"JeFEE","JM2_Happiness.mp4","8","male","happiness",NA,"",NA,NA,"",NA,6007.7,"3_medium_hight",207.713745332368,45.98,0,"relief",347.77,13,"12","control","female","2_control",67,"",NA,"","",54,"",2023-03-10,0,58,NA,NA,0.685,66,53.99,69.93,50.73,62.04,11.54,0.25,68.38,54.45,58.07,53.03,6.36,57.11,11.74,5.95,59.03,NA,NA,17
164,-123,"task","GW1",101.25,"JeFEE","JF2_Anger.mp4","6","female","anger",NA,"",NA,NA,"",NA,1922.7,"3_medium_hight",205,-25.62,0,"contempt",126.87,13,"12","control","female","2_control",67,"",NA,"","",55,"",2023-03-10,0,58,NA,NA,0.685,66,53.99,69.93,50.73,62.04,11.54,0.25,68.38,54.45,58.07,53.03,6.36,57.11,11.74,5.95,59.03,NA,NA,17
131,160,"task","GW1",33.75,"ADFES","F01-Joy-Face Forward.mp4","1","female","happiness",NA,"",NA,NA,"",NA,5603.6,"3_medium_hight",206.787330366249,-5.56,1,"happiness",39.31,13,"12","control","female","2_control",67,"",NA,"","",56,"",2023-03-10,0,58,NA,NA,0.685,66,53.99,69.93,50.73,62.04,11.54,0.25,68.38,54.45,58.07,53.03,6.36,57.11,11.74,5.95,59.03,NA,NA,17
-44,-203,"task","GW1",258.75,"JeFEE","JM2_Sadness.mp4","8","male","sadness",NA,"",NA,NA,"",NA,2479.5,"3_medium_hight",207.713745332368,66.52,0,"guilt",192.23,13,"12","control","female","2_control",67,"",NA,"","",57,"",2023-03-10,1,58,NA,NA,0.685,66,53.99,69.93,50.73,62.04,11.54,0.25,68.38,54.45,58.07,53.03,6.36,57.11,11.74,5.95,59.03,NA,NA,17
-171,-99,"task","GW1",236.25,"JeFEE","JF2_Fear.mp4","6","female","fear",NA,"",NA,NA,"",NA,3378.9,"3_medium_hight",197.590485600901,-3.67999999999998,1,"fear",239.93,13,"12","control","female","2_control",67,"",NA,"","",58,"",2023-03-10,1,58,NA,NA,0.685,66,53.99,69.93,50.73,62.04,11.54,0.25,68.38,54.45,58.07,53.03,6.36,57.11,11.74,5.95,59.03,NA,NA,17
-198,35,"task","GW1",281.25,"ADFES","M02-Surprise-Face Forward.mp4","3","male","surprise",NA,"",NA,NA,"",NA,2111.5,"3_medium_hight",201.069639677401,1.23000000000002,1,"surprise",280.02,13,"12","control","female","2_control",67,"",NA,"","",59,"",2023-03-10,1,58,NA,NA,0.685,66,53.99,69.93,50.73,62.04,11.54,0.25,68.38,54.45,58.07,53.03,6.36,57.11,11.74,5.95,59.03,NA,NA,17
108,-152,"task","GW1",258.75,"ADFES","M02-Sadness-Face Forward.mp4","3","male","sadness",NA,"",NA,NA,"",NA,3582,"3_medium_hight",186.461792332907,114.14,0,"disgust",144.61,13,"12","control","female","2_control",67,"",NA,"","",60,"",2023-03-10,1,58,NA,NA,0.685,66,53.99,69.93,50.73,62.04,11.54,0.25,68.38,54.45,58.07,53.03,6.36,57.11,11.74,5.95,59.03,NA,NA,17
-182,119,"task","GW1",258.75,"JeFEE","JM1_Sadness.mp4","7","male","sadness",NA,"",NA,NA,"",NA,3282.5,"4_hight",217.451143938127,-44.43,0,"interest",303.18,13,"12","control","female","2_control",67,"",NA,"","",61,"",2023-03-10,1,58,NA,NA,0.685,66,53.99,69.93,50.73,62.04,11.54,0.25,68.38,54.45,58.07,53.03,6.36,57.11,11.74,5.95,59.03,NA,NA,17
-103,-154,"task","GW1",NA,"JeFEE","JF2_Neutral.mp4","6","female","neutrality",NA,"",NA,NA,"",NA,7770.6,"3_medium_hight",185.270073136489,NA,0,"shame",213.78,13,"12","control","female","2_control",67,"",NA,"","",62,"",2023-03-10,1,58,NA,NA,0.685,66,53.99,69.93,50.73,62.04,11.54,0.25,68.38,54.45,58.07,53.03,6.36,57.11,11.74,5.95,59.03,NA,NA,17
-167,-116,"task","GW1",236.25,"JeFEE","JF1_Fear.mp4","5","female","fear",NA,"",NA,NA,"",NA,2648.2,"3_medium_hight",203.334699448963,1.03000000000003,1,"fear",235.22,13,"12","control","female","2_control",67,"",NA,"","",63,"",2023-03-10,1,58,NA,NA,0.685,66,53.99,69.93,50.73,62.04,11.54,0.25,68.38,54.45,58.07,53.03,6.36,57.11,11.74,5.95,59.03,NA,NA,17
-200,61,"task","GW1",281.25,"JeFEE","JF2_Surprise.mp4","6","female","surprise",NA,"",NA,NA,"",NA,2745.9,"4_hight",209.095671882514,-5.70999999999998,1,"surprise",286.96,13,"12","control","female","2_control",67,"",NA,"","",64,"",2023-03-10,1,58,NA,NA,0.685,66,53.99,69.93,50.73,62.04,11.54,0.25,68.38,54.45,58.07,53.03,6.36,57.11,11.74,5.95,59.03,NA,NA,17
34,-210,"task","GW1",101.25,"ADFES","F03-Anger-Face Forward.mp4","2","female","anger",NA,"",NA,NA,"",NA,5895.9,"4_hight",212.734576409196,-69.55,0,"envy",170.8,13,"12","control","female","2_control",67,"",NA,"","",65,"",2023-03-10,1,58,NA,NA,0.685,66,53.99,69.93,50.73,62.04,11.54,0.25,68.38,54.45,58.07,53.03,6.36,57.11,11.74,5.95,59.03,NA,NA,17
35,217,"task","GW1",33.75,"JeFEE","JF1_Happiness.mp4","5","female","happiness",NA,"",NA,NA,"",NA,2627.2,"4_hight",219.804458553506,24.59,0,"satisfaction",9.16,13,"12","control","female","2_control",67,"",NA,"","",66,"",2023-03-10,1,58,NA,NA,0.685,66,53.99,69.93,50.73,62.04,11.54,0.25,68.38,54.45,58.07,53.03,6.36,57.11,11.74,5.95,59.03,NA,NA,17
216,38,"task","GW1",281.25,"JeFEE","JM1_Surprise.mp4","7","male","surprise",NA,"",NA,NA,"",NA,5770.8,"4_hight",219.317121994613,-158.77,0,"pride",80.02,13,"12","control","female","2_control",67,"",NA,"","",67,"",2023-03-10,1,58,NA,NA,0.685,66,53.99,69.93,50.73,62.04,11.54,0.25,68.38,54.45,58.07,53.03,6.36,57.11,11.74,5.95,59.03,NA,NA,17
168,-126,"task","GW1",101.25,"JeFEE","JM1_Anger.mp4","7","male","anger",NA,"",NA,NA,"",NA,5247.8,"4_hight",210,-25.62,0,"contempt",126.87,13,"12","control","female","2_control",67,"",NA,"","",68,"",2023-03-10,1,58,NA,NA,0.685,66,53.99,69.93,50.73,62.04,11.54,0.25,68.38,54.45,58.07,53.03,6.36,57.11,11.74,5.95,59.03,NA,NA,17
33,206,"task","GW1",NA,"ADFES","M02-Neutral-Face Forward.mp4","3","male","neutrality",NA,"",NA,NA,"",NA,6885.5,"3_medium_hight",208.626460450251,NA,0,"satisfaction",9.1,13,"12","control","female","2_control",67,"",NA,"","",69,"",2023-03-10,1,58,NA,NA,0.685,66,53.99,69.93,50.73,62.04,11.54,0.25,68.38,54.45,58.07,53.03,6.36,57.11,11.74,5.95,59.03,NA,NA,17
-210,-40,"task","GW1",101.25,"JeFEE","JF1_Anger.mp4","5","female","anger",NA,"",NA,NA,"",NA,5387.1,"4_hight",213.775583264319,-157.97,0,"sadness",259.22,13,"12","control","female","2_control",67,"",NA,"","",70,"",2023-03-10,1,58,NA,NA,0.685,66,53.99,69.93,50.73,62.04,11.54,0.25,68.38,54.45,58.07,53.03,6.36,57.11,11.74,5.95,59.03,NA,NA,17
175,124,"task","GW1",33.75,"JeFEE","JF2_Happiness.mp4","6","female","happiness",NA,"",NA,NA,"",NA,3616.8,"4_hight",214.478437144623,-20.93,0,"elation",54.68,13,"12","control","female","2_control",67,"",NA,"","",71,"",2023-03-10,1,58,NA,NA,0.685,66,53.99,69.93,50.73,62.04,11.54,0.25,68.38,54.45,58.07,53.03,6.36,57.11,11.74,5.95,59.03,NA,NA,17
-174,115,"task","GW1",NA,"ADFES","F03-Neutral-Face Forward.mp4","2","female","neutrality",NA,"",NA,NA,"",NA,1742.1,"3_medium_hight",208.568933448872,NA,0,"interest",303.46,13,"12","control","female","2_control",67,"",NA,"","",72,"",2023-03-10,1,58,NA,NA,0.685,66,53.99,69.93,50.73,62.04,11.54,0.25,68.38,54.45,58.07,53.03,6.36,57.11,11.74,5.95,59.03,NA,NA,17
197,-43,"task","GW1",101.25,"ADFES","M02-Anger-Face Forward.mp4","3","male","anger",NA,"",NA,NA,"",NA,4683,"3_medium_hight",201.63829001457,-1.06,1,"anger",102.31,13,"12","control","female","2_control",67,"",NA,"","",73,"",2023-03-10,1,58,NA,NA,0.685,66,53.99,69.93,50.73,62.04,11.54,0.25,68.38,54.45,58.07,53.03,6.36,57.11,11.74,5.95,59.03,NA,NA,17
-198,27,"task","GW1",236.25,"ADFES","M03-Fear-Face Forward.mp4","4","male","fear",NA,"",NA,NA,"",NA,5136.2,"3_medium_hight",199.832429800571,-41.52,0,"surprise",277.77,13,"12","control","female","2_control",67,"",NA,"","",74,"",2023-03-10,1,58,NA,NA,0.685,66,53.99,69.93,50.73,62.04,11.54,0.25,68.38,54.45,58.07,53.03,6.36,57.11,11.74,5.95,59.03,NA,NA,17
-173,96,"task","GW1",NA,"ADFES","M03-Neutral-Face Forward.mp4","4","male","neutrality",NA,"",NA,NA,"",NA,2571.4,"3_medium_hight",197.85095400326,NA,0,"interest",299.03,13,"12","control","female","2_control",67,"",NA,"","",75,"",2023-03-10,1,58,NA,NA,0.685,66,53.99,69.93,50.73,62.04,11.54,0.25,68.38,54.45,58.07,53.03,6.36,57.11,11.74,5.95,59.03,NA,NA,17
-164,94,"task","GW1",281.25,"JeFEE","JF1_Surprise.mp4","5","female","surprise",NA,"",NA,NA,"",NA,2383.3,"3_medium_hight",189.029098289126,-18.57,0,"interest",299.82,13,"12","control","female","2_control",67,"",NA,"","",76,"",2023-03-10,1,58,NA,NA,0.685,66,53.99,69.93,50.73,62.04,11.54,0.25,68.38,54.45,58.07,53.03,6.36,57.11,11.74,5.95,59.03,NA,NA,17
-35,-200,"task","GW1",258.75,"JeFEE","JF1_Sadness.mp4","5","female","sadness",NA,"",NA,NA,"",NA,2620.4,"3_medium_hight",203.03940504247,68.82,0,"guilt",189.93,13,"12","control","female","2_control",67,"",NA,"","",77,"",2023-03-10,1,58,NA,NA,0.685,66,53.99,69.93,50.73,62.04,11.54,0.25,68.38,54.45,58.07,53.03,6.36,57.11,11.74,5.95,59.03,NA,NA,17
207,-34,"task","GW1",101.25,"ADFES","F01-Anger-Face Forward.mp4","1","female","anger",NA,"",NA,NA,"",NA,3163.9,"4_hight",209.773687577828,1.91999999999999,1,"anger",99.33,13,"12","control","female","2_control",67,"",NA,"","",78,"",2023-03-10,1,58,NA,NA,0.685,66,53.99,69.93,50.73,62.04,11.54,0.25,68.38,54.45,58.07,53.03,6.36,57.11,11.74,5.95,59.03,NA,NA,17
-180,128,"task","GW1",33.75,"JeFEE","JM1_Happiness.mp4","7","male","happiness",NA,"",NA,NA,"",NA,3644.9,"4_hight",220.871003076456,88.33,0,"interest",305.42,13,"12","control","female","2_control",67,"",NA,"","",79,"",2023-03-10,1,58,NA,NA,0.685,66,53.99,69.93,50.73,62.04,11.54,0.25,68.38,54.45,58.07,53.03,6.36,57.11,11.74,5.95,59.03,NA,NA,17
-191,22,"task","GW1",281.25,"ADFES","M03-Surprise-Face Forward.mp4","4","male","surprise",NA,"",NA,NA,"",NA,2871.3,"3_medium_hight",192.262840923565,4.68000000000001,1,"surprise",276.57,13,"12","control","female","2_control",67,"",NA,"","",80,"",2023-03-10,1,58,NA,NA,0.685,66,53.99,69.93,50.73,62.04,11.54,0.25,68.38,54.45,58.07,53.03,6.36,57.11,11.74,5.95,59.03,NA,NA,17
-124,-187,"task","GW1",146.25,"JeFEE","JF1_Disgust.mp4","5","female","disgust",NA,"",NA,NA,"",NA,3847.1,"4_hight",224.37691503361,-67.3,0,"shame",213.55,13,"12","control","female","2_control",67,"",NA,"","",81,"",2023-03-10,1,58,NA,NA,0.685,66,53.99,69.93,50.73,62.04,11.54,0.25,68.38,54.45,58.07,53.03,6.36,57.11,11.74,5.95,59.03,NA,NA,17
-41,-195,"task","GW1",236.25,"JeFEE","JM2_Fear.mp4","8","male","fear",NA,"",NA,NA,"",NA,3184.9,"3_medium_hight",199.263644451265,44.38,0,"guilt",191.87,13,"12","control","female","2_control",67,"",NA,"","",82,"",2023-03-10,1,58,NA,NA,0.685,66,53.99,69.93,50.73,62.04,11.54,0.25,68.38,54.45,58.07,53.03,6.36,57.11,11.74,5.95,59.03,NA,NA,17
108,-161,"task","GW1",146.25,"JeFEE","JM1_Disgust.mp4","7","male","disgust",NA,"",NA,NA,"",NA,3721.4,"3_medium_hight",193.868512141606,0.100000000000023,1,"disgust",146.15,13,"12","control","female","2_control",67,"",NA,"","",83,"",2023-03-10,1,58,NA,NA,0.685,66,53.99,69.93,50.73,62.04,11.54,0.25,68.38,54.45,58.07,53.03,6.36,57.11,11.74,5.95,59.03,NA,NA,17
117,-176,"task","GW1",146.25,"JeFEE","JF2_Disgust.mp4","6","female","disgust",NA,"",NA,NA,"",NA,7178.7,"4_hight",211.340956749987,-0.139999999999958,1,"disgust",146.39,13,"12","control","female","2_control",67,"",NA,"","",84,"",2023-03-10,1,58,NA,NA,0.685,66,53.99,69.93,50.73,62.04,11.54,0.25,68.38,54.45,58.07,53.03,6.36,57.11,11.74,5.95,59.03,NA,NA,17
-171,114,"task","GW1",NA,"JeFEE","JM1_Neutral.mp4","7","male","neutrality",NA,"",NA,NA,"",NA,2111.5,"3_medium_hight",205.516422701447,NA,0,"interest",303.69,13,"12","control","female","2_control",67,"",NA,"","",85,"",2023-03-10,1,58,NA,NA,0.685,66,53.99,69.93,50.73,62.04,11.54,0.25,68.38,54.45,58.07,53.03,6.36,57.11,11.74,5.95,59.03,NA,NA,17
-202,-45,"task","GW1",258.75,"ADFES","F03-Sadness-Face Forward.mp4","2","female","sadness",NA,"",NA,NA,"",NA,4892.2,"3_medium_hight",206.951685182798,1.31,1,"sadness",257.44,13,"12","control","female","2_control",67,"",NA,"","",86,"",2023-03-10,1,58,NA,NA,0.685,66,53.99,69.93,50.73,62.04,11.54,0.25,68.38,54.45,58.07,53.03,6.36,57.11,11.74,5.95,59.03,NA,NA,17
-168,115,"task","GW1",NA,"JeFEE","JF1_Neutral.mp4","5","female","neutrality",NA,"",NA,NA,"",NA,2594.6,"3_medium_hight",203.590274816849,NA,0,"interest",304.39,13,"12","control","female","2_control",67,"",NA,"","",87,"",2023-03-10,1,58,NA,NA,0.685,66,53.99,69.93,50.73,62.04,11.54,0.25,68.38,54.45,58.07,53.03,6.36,57.11,11.74,5.95,59.03,NA,NA,17
-43,190,"task","GW1",33.75,"JeFEE","JM2_Happiness.mp4","8","male","happiness",NA,"",NA,NA,"",NA,2864.3,"3_medium_hight",194.805030735862,46.5,0,"relief",347.25,13,"12","control","female","2_control",67,"",NA,"","",88,"",2023-03-10,1,58,NA,NA,0.685,66,53.99,69.93,50.73,62.04,11.54,0.25,68.38,54.45,58.07,53.03,6.36,57.11,11.74,5.95,59.03,NA,NA,17
-206,37,"task","GW1",236.25,"ADFES","M02-Fear-Face Forward.mp4","3","male","fear",NA,"",NA,NA,"",NA,6453.3,"4_hight",209.296440485738,-43.93,0,"surprise",280.18,13,"12","control","female","2_control",67,"",NA,"","",89,"",2023-03-10,1,58,NA,NA,0.685,66,53.99,69.93,50.73,62.04,11.54,0.25,68.38,54.45,58.07,53.03,6.36,57.11,11.74,5.95,59.03,NA,NA,17
-166,128,"task","GW1",NA,"JeFEE","JM2_Neutral.mp4","8","male","neutrality",NA,"",NA,NA,"",NA,6802.2,"4_hight",209.618701455762,NA,0,"interest",307.64,13,"12","control","female","2_control",67,"",NA,"","",90,"",2023-03-10,1,58,NA,NA,0.685,66,53.99,69.93,50.73,62.04,11.54,0.25,68.38,54.45,58.07,53.03,6.36,57.11,11.74,5.95,59.03,NA,NA,17
-208,-47,"task","GW1",258.75,"ADFES","F01-Sadness-Face Forward.mp4","1","female","sadness",NA,"",NA,NA,"",NA,9352.7,"4_hight",213.243991709028,1.48000000000002,1,"sadness",257.27,13,"12","control","female","2_control",67,"",NA,"","",91,"",2023-03-10,1,58,NA,NA,0.685,66,53.99,69.93,50.73,62.04,11.54,0.25,68.38,54.45,58.07,53.03,6.36,57.11,11.74,5.95,59.03,NA,NA,17
108,-150,"task","GW1",146.25,"ADFES","F01-Disgust-Face Forward.mp4","1","female","disgust",NA,"",NA,NA,"",NA,2703.9,"3_medium_hight",184.835061608992,2.00000000000003,1,"disgust",144.25,13,"12","control","female","2_control",67,"",NA,"","",92,"",2023-03-10,1,58,NA,NA,0.685,66,53.99,69.93,50.73,62.04,11.54,0.25,68.38,54.45,58.07,53.03,6.36,57.11,11.74,5.95,59.03,NA,NA,17
106,-164,"task","GW1",146.25,"ADFES","M03-Disgust-Face Forward.mp4","4","male","disgust",NA,"",NA,NA,"",NA,4432.1,"3_medium_hight",195.274166238138,-0.869999999999976,1,"disgust",147.12,13,"12","control","female","2_control",67,"",NA,"","",93,"",2023-03-10,1,58,NA,NA,0.685,66,53.99,69.93,50.73,62.04,11.54,0.25,68.38,54.45,58.07,53.03,6.36,57.11,11.74,5.95,59.03,NA,NA,17
-208,-22,"task","GW1",258.75,"JeFEE","JF2_Sadness.mp4","6","female","sadness",NA,"",NA,NA,"",NA,2467,"4_hight",209.160225664441,-5.20999999999998,1,"sadness",263.96,13,"12","control","female","2_control",67,"",NA,"","",94,"",2023-03-10,1,58,NA,NA,0.685,66,53.99,69.93,50.73,62.04,11.54,0.25,68.38,54.45,58.07,53.03,6.36,57.11,11.74,5.95,59.03,NA,NA,17
202,-47,"task","GW1",101.25,"JeFEE","JF2_Anger.mp4","6","female","anger",NA,"",NA,NA,"",NA,2494.8,"3_medium_hight",207.395756947918,-1.85000000000002,1,"anger",103.1,13,"12","control","female","2_control",67,"",NA,"","",95,"",2023-03-10,1,58,NA,NA,0.685,66,53.99,69.93,50.73,62.04,11.54,0.25,68.38,54.45,58.07,53.03,6.36,57.11,11.74,5.95,59.03,NA,NA,17
-158,97,"task","GW1",NA,"ADFES","F01-Neutral-Face Forward.mp4","1","female","neutrality",NA,"",NA,NA,"",NA,1644.4,"3_medium_hight",185.399568500037,NA,0,"interest",301.55,13,"12","control","female","2_control",67,"",NA,"","",96,"",2023-03-10,1,58,NA,NA,0.685,66,53.99,69.93,50.73,62.04,11.54,0.25,68.38,54.45,58.07,53.03,6.36,57.11,11.74,5.95,59.03,NA,NA,17
176,119,"task","GW1",33.75,"ADFES","M02-Joy-Face Forward.mp4","3","male","happiness",NA,"",NA,NA,"",NA,1958.2,"4_hight",212.454701054131,-22.19,0,"elation",55.94,13,"12","control","female","2_control",67,"",NA,"","",97,"",2023-03-10,1,58,NA,NA,0.685,66,53.99,69.93,50.73,62.04,11.54,0.25,68.38,54.45,58.07,53.03,6.36,57.11,11.74,5.95,59.03,NA,NA,17
-39,-185,"task","GW1",146.25,"JeFEE","JM2_Disgust.mp4","8","male","disgust",NA,"",NA,NA,"",NA,3428.7,"3_medium_hight",189.066125998287,-45.65,0,"guilt",191.9,13,"12","control","female","2_control",67,"",NA,"","",98,"",2023-03-10,1,58,NA,NA,0.685,66,53.99,69.93,50.73,62.04,11.54,0.25,68.38,54.45,58.07,53.03,6.36,57.11,11.74,5.95,59.03,NA,NA,17
-197,39,"task","GW1",281.25,"ADFES","F03-Surprise-Face Forward.mp4","2","female","surprise",NA,"",NA,NA,"",NA,1895.4,"3_medium_hight",200.823305420462,0.0500000000000114,1,"surprise",281.2,13,"12","control","female","2_control",67,"",NA,"","",99,"",2023-03-10,1,58,NA,NA,0.685,66,53.99,69.93,50.73,62.04,11.54,0.25,68.38,54.45,58.07,53.03,6.36,57.11,11.74,5.95,59.03,NA,NA,17
-43,-209,"task","GW1",258.75,"ADFES","M03-Sadness-Face Forward.mp4","4","male","sadness",NA,"",NA,NA,"",NA,1784,"4_hight",213.377599574088,67.12,0,"guilt",191.63,13,"12","control","female","2_control",67,"",NA,"","",100,"",2023-03-10,1,58,NA,NA,0.685,66,53.99,69.93,50.73,62.04,11.54,0.25,68.38,54.45,58.07,53.03,6.36,57.11,11.74,5.95,59.03,NA,NA,17
109,161,"task","GW1",33.75,"ADFES","F03-Joy-Face Forward.mp4","2","female","happiness",NA,"",NA,NA,"",NA,2697,"3_medium_hight",194.427364329201,-0.349999999999994,1,"happiness",34.1,13,"12","control","female","2_control",67,"",NA,"","",101,"",2023-03-10,1,58,NA,NA,0.685,66,53.99,69.93,50.73,62.04,11.54,0.25,68.38,54.45,58.07,53.03,6.36,57.11,11.74,5.95,59.03,NA,NA,17
98,-166,"task","GW1",146.25,"ADFES","M02-Disgust-Face Forward.mp4","3","male","disgust",NA,"",NA,NA,"",NA,4223.3,"3_medium_hight",192.769292160344,-3.18999999999997,1,"disgust",149.44,13,"12","control","female","2_control",67,"",NA,"","",102,"",2023-03-10,1,58,NA,NA,0.685,66,53.99,69.93,50.73,62.04,11.54,0.25,68.38,54.45,58.07,53.03,6.36,57.11,11.74,5.95,59.03,NA,NA,17
-164,-117,"task","GW1",236.25,"JeFEE","JM1_Fear.mp4","7","male","fear",NA,"",NA,NA,"",NA,3623.9,"3_medium_hight",201.457191482459,1.75000000000003,1,"fear",234.5,13,"12","control","female","2_control",67,"",NA,"","",103,"",2023-03-10,1,58,NA,NA,0.685,66,53.99,69.93,50.73,62.04,11.54,0.25,68.38,54.45,58.07,53.03,6.36,57.11,11.74,5.95,59.03,NA,NA,17
193,-41,"task","GW1",101.25,"JeFEE","JM2_Anger.mp4","8","male","anger",NA,"",NA,NA,"",NA,2752.6,"3_medium_hight",197.306867594618,-0.740000000000009,1,"anger",101.99,13,"12","control","female","2_control",67,"",NA,"","",104,"",2023-03-10,1,58,NA,NA,0.685,66,53.99,69.93,50.73,62.04,11.54,0.25,68.38,54.45,58.07,53.03,6.36,57.11,11.74,5.95,59.03,NA,NA,17
40,195,"task","GW1",33.75,"ADFES","F01-Joy-Face Forward.mp4","1","female","happiness",NA,"",NA,NA,"",NA,2599.3,"3_medium_hight",199.060292373944,22.16,0,"satisfaction",11.59,13,"12","control","female","2_control",67,"",NA,"","",105,"",2023-03-10,1,58,NA,NA,0.685,66,53.99,69.93,50.73,62.04,11.54,0.25,68.38,54.45,58.07,53.03,6.36,57.11,11.74,5.95,59.03,NA,NA,17
-213,35,"task","GW1",281.25,"ADFES","F01-Surprise-Face Forward.mp4","1","female","surprise",NA,"",NA,NA,"",NA,2020.8,"4_hight",215.856433770226,1.92000000000002,1,"surprise",279.33,13,"12","control","female","2_control",67,"",NA,"","",106,"",2023-03-10,1,58,NA,NA,0.685,66,53.99,69.93,50.73,62.04,11.54,0.25,68.38,54.45,58.07,53.03,6.36,57.11,11.74,5.95,59.03,NA,NA,17
51,216,"task","GW1",281.25,"JeFEE","JM2_Surprise.mp4","8","male","surprise",NA,"",NA,NA,"",NA,11241.8,"4_hight",221.93918085818,-92.03,0,"satisfaction",13.28,13,"12","control","female","2_control",67,"",NA,"","",107,"",2023-03-10,1,58,NA,NA,0.685,66,53.99,69.93,50.73,62.04,11.54,0.25,68.38,54.45,58.07,53.03,6.36,57.11,11.74,5.95,59.03,NA,NA,17
175,-121,"task","GW1",101.25,"ADFES","M03-Anger-Face Forward.mp4","4","male","anger",NA,"",NA,NA,"",NA,8425.9,"4_hight",212.758078577524,-23.41,0,"contempt",124.66,13,"12","control","female","2_control",67,"",NA,"","",108,"",2023-03-10,1,58,NA,NA,0.685,66,53.99,69.93,50.73,62.04,11.54,0.25,68.38,54.45,58.07,53.03,6.36,57.11,11.74,5.95,59.03,NA,NA,17
-171,-103,"task","GW1",236.25,"ADFES","F01-Fear-Face Forward.mp4","1","female","fear",NA,"",NA,NA,"",NA,3442.5,"3_medium_hight",199.624647776771,-2.68999999999997,1,"fear",238.94,13,"12","control","female","2_control",67,"",NA,"","",109,"",2023-03-10,1,58,NA,NA,0.685,66,53.99,69.93,50.73,62.04,11.54,0.25,68.38,54.45,58.07,53.03,6.36,57.11,11.74,5.95,59.03,NA,NA,17
-176,-98,"task","GW1",236.25,"ADFES","F03-Fear-Face Forward.mp4","2","female","fear",NA,"",NA,NA,"",NA,3122.2,"3_medium_hight",201.444781515928,-4.63999999999996,1,"fear",240.89,13,"12","control","female","2_control",67,"",NA,"","",110,"",2023-03-10,1,58,NA,NA,0.685,66,53.99,69.93,50.73,62.04,11.54,0.25,68.38,54.45,58.07,53.03,6.36,57.11,11.74,5.95,59.03,NA,NA,17
113,-173,"task","GW1",146.25,"ADFES","F03-Disgust-Face Forward.mp4","2","female","disgust",NA,"",NA,NA,"",NA,1951.2,"3_medium_hight",206.634943801865,-0.599999999999966,1,"disgust",146.85,13,"12","control","female","2_control",67,"",NA,"","",111,"",2023-03-10,1,58,NA,NA,0.685,66,53.99,69.93,50.73,62.04,11.54,0.25,68.38,54.45,58.07,53.03,6.36,57.11,11.74,5.95,59.03,NA,NA,17
157,119,"task","GW1",33.75,"ADFES","M03-Joy-Face Forward.mp4","4","male","happiness",NA,"",NA,NA,"",NA,4244,"3_medium_hight",197.002538054716,-19.09,0,"elation",52.84,13,"12","control","female","2_control",67,"",NA,"","",112,"",2023-03-10,1,58,NA,NA,0.685,66,53.99,69.93,50.73,62.04,11.54,0.25,68.38,54.45,58.07,53.03,6.36,57.11,11.74,5.95,59.03,NA,NA,17
