file,file_emotion,file_emotion_level,file_gender,file_id,file_duration,size_w,size_h,trigger,loop_practice_full.thisRepN,loop_practice_full.thisTrialN,loop_practice_full.thisN,loop_practice_full.thisIndex,loop_istr_practice.thisRepN,loop_istr_practice.thisTrialN,loop_istr_practice.thisN,loop_istr_practice.thisIndex,tuto.thisRepN,tuto.thisTrialN,tuto.thisN,tuto.thisIndex,loop_practice.thisRepN,loop_practice.thisTrialN,loop_practice.thisN,loop_practice.thisIndex,exp_blocks.thisRepN,exp_blocks.thisTrialN,exp_blocks.thisN,exp_blocks.thisIndex,istr_1.thisRepN,istr_1.thisTrialN,istr_1.thisN,istr_1.thisIndex,istr_2.thisRepN,istr_2.thisTrialN,istr_2.thisN,istr_2.thisIndex,exp.thisRepN,exp.thisTrialN,exp.thisN,exp.thisIndex,img_tutorial.started,img_tutorial.stopped,p_port.started,p_port.stopped,mov_target.started,mov_target.stopped,p_port_2.started,p_port_2.stopped,primary.x,primary.y,primary.leftButton,primary.midButton,primary.rightButton,primary.time,primary.clicked_name,primary.started,primary.stopped,img_primary_wheel.started,img_primary_wheel.stopped,click_1.started,click_1.stopped,p_port_4.started,p_port_4.stopped,txt_iwi.started,txt_iwi.stopped,p_port_3.started,p_port_3.stopped,secondary.x,secondary.y,secondary.leftButton,secondary.midButton,secondary.rightButton,secondary.time,secondary.clicked_name,secondary.started,secondary.stopped,img_secondary_wheel.started,img_secondary_wheel.stopped,click_2.started,click_2.stopped,primary_pos.started,primary_pos.stopped,p_port_5.started,p_port_5.stopped,kb_end_practice.keys,kb_end_practice.rt,participant,session,group,age,sex,education,practice,experimenter,date,expName,psychopyVersion,frameRate,
stimoli/03.practice/F04-Disgust-Face Forward.mp4,disgust,full,femmina,9,6,700,700,58,0,0,0,0,,,,,,,,,0,0,0,1,,,,,,,,,,,,,,,,,270.5926214112883,None,0.0008653448994664359,0.005329664978034998,294.8117913344913,None,0.005766186247456062,0.01184348611468522,-77.0,50.0,1,0,0,5.631907363834671,click_1,0.005766186247456062,None,300.8436249932647,None,300.8436249932647,None,0.0047497748432761,0.00974972352560144,306.4760737589454,None,0.005866897253781644,0.01198268540429126,-55.0,83.0,1,0,0,7.993925266018323,click_2,0.005866897253781644,None,306.97796738246325,None,306.97796738246325,None,306.97796738246325,None,0.004541296644219983,0.009350407590773102,,,01_control,001,control,53,m,11,1,sofia,2023_Mar_27_1526,CPO_EEG,2020.1.3,143.7411597647192,
stimoli/03.practice/F04-Sadness-Face Forward.mp4,sadness,full,femmina,9,6,700,700,60,0,0,0,0,,,,,,,,,0,1,1,3,,,,,,,,,,,,,,,,,,,0.003197414101123286,0.008053031722738524,316.5808667689598,None,0.006208480764598789,0.01263730694881815,-21.0,-99.0,1,0,0,4.3973671448620735,click_1,0.006208480764598789,None,322.60125240872503,None,322.60125240872503,None,0.005440639521111734,0.011105152554591768,326.9988681237478,None,0.006108411229433841,0.012462826733553811,0.0,0.0,1,0,0,9.673004510826559,click_2,0.006108411229433841,None,327.50067482789336,None,327.50067482789336,None,327.50067482789336,None,0.005272894755307789,0.010784416864225932,,,01_control,001,control,53,m,11,1,sofia,2023_Mar_27_1526,CPO_EEG,2020.1.3,143.7411597647192,
stimoli/03.practice/F04-Neutral-Face Forward.mp4,neutral,full,femmina,9,6,700,700,62,0,0,0,0,,,,,,,,,0,2,2,5,,,,,,,,,,,,,,,,,,,0.006564497382441914,0.010138134448425262,338.7978155975052,None,0.00618218043791785,0.012600743079929089,3.0,1.0,1,0,0,8.335596337455172,click_1,0.00618218043791785,None,344.82275664628514,None,344.82275664628514,None,0.005424602736638917,0.011086229148986604,353.1586028368429,None,0.006049716597317456,0.012329400685757719,1.0,-1.0,1,0,0,11.15845241180432,click_2,0.006049716597317456,None,353.66041146540283,None,353.66041146540283,None,353.66041146540283,None,0.005313628187650465,0.01088192051383885,,,01_control,001,control,53,m,11,1,sofia,2023_Mar_27_1526,CPO_EEG,2020.1.3,143.7411597647192,
stimoli/03.practice/F04-Surprise-Face Forward.mp4,surprise,full,femmina,9,6,700,700,61,0,0,0,0,,,,,,,,,0,3,3,4,,,,,,,,,,,,,,,,,,,0.00582744676466973,0.009882828837817215,366.4175600224771,None,0.006198858694460796,0.012618383543667733,24.0,-96.0,1,0,0,6.718253260598885,click_1,0.006198858694460796,None,372.640319298795,None,372.640319298795,None,0.00541979170156992,0.011077248550009244,379.3588070171836,None,0.006089167087338865,0.01245544981202329,-1.0,1.0,1,0,0,7.49150659817451,click_2,0.006089167087338865,None,379.8606233434002,None,379.8606233434002,None,379.8606233434002,None,0.00530785494538577,0.010856582394808356,,,01_control,001,control,53,m,11,1,sofia,2023_Mar_27_1526,CPO_EEG,2020.1.3,143.7411597647192,
stimoli/03.practice/F04-Joy-Face Forward.mp4,joy,full,femmina,9,6,700,700,59,0,0,0,0,,,,,,,,,0,4,4,2,,,,,,,,,,,,,,,,,,,0.0019285837083771185,0.0057363578284821415,388.9813902737542,None,0.006186670737861277,0.012642759455957275,114.0,80.0,1,0,0,5.638248949911485,click_1,0.006186670737861277,None,395.0020883100824,None,395.0020883100824,None,0.0053761716471854015,0.011026251574548951,400.6405701141048,None,0.00611482594285917,0.012474693953663518,-3.0,0.0,1,0,0,5.598728218839824,click_2,0.00611482594285917,None,401.1423768182508,None,401.1423768182508,None,401.1423768182508,None,0.005265838571176573,0.010776077737318701,,,01_control,001,control,53,m,11,1,sofia,2023_Mar_27_1526,CPO_EEG,2020.1.3,143.7411597647192,
stimoli/03.practice/F04-Anger-Face Forward.mp4,anger,full,femmina,9,6,700,700,57,0,0,0,0,,,,,,,,,0,5,5,0,,,,,,,,,,,,,,,,,,,0.0003370932108737179,0.004409795011270035,408.33564444780905,None,0.006209122237123665,0.012640835042475373,-16.0,98.0,1,0,0,3.1637933025258462,click_1,0.006209122237123665,None,414.35842277582606,None,414.35842277582606,None,0.005416905079073331,0.011113812417534064,417.5225053819454,None,0.006040735999704339,0.012328438479926263,-15.0,98.0,1,0,0,2.85700929363702,click_2,0.006040735999704339,None,418.0242511463098,None,418.0242511463098,None,418.0242511463098,None,0.005346343229575723,0.010974613129292266,,,01_control,001,control,53,m,11,1,sofia,2023_Mar_27_1526,CPO_EEG,2020.1.3,143.7411597647192,
,,,,,,,,,0,0,0,0,,,,,,,,,,,,,,,,,,,,,,,,,,,,,,,,,,,,,,,,,,,,,,,,,,,,,,,,,,,,,,,,,,,,,,,,,y,34.830981592337594,01_control,001,control,53,m,11,1,sofia,2023_Mar_27_1526,CPO_EEG,2020.1.3,143.7411597647192,
stimoli/03.practice/F04-Surprise-Face Forward.mp4,surprise,full,femmina,9,6,700,700,61,1,0,1,0,,,,,,,,,0,0,0,4,,,,,,,,,,,,,,,,,,,0.005649759191328485,0.011261030100286007,457.3139633565893,None,0.005978513274385477,0.012199502731164102,23.0,-103.0,1,0,0,5.133760574655753,click_1,0.005978513274385477,None,463.5349133628756,None,463.5349133628756,None,0.00475683102831681,0.009736894097841287,468.6690963464357,None,0.005846049434694578,0.011941951971493836,-1.0,4.0,1,0,0,7.028480367126576,click_2,0.005846049434694578,None,469.1707013078317,None,469.1707013078317,None,469.1707013078317,None,0.004580426400025317,0.009384726310599945,,,01_control,001,control,53,m,11,1,sofia,2023_Mar_27_1526,CPO_EEG,2020.1.3,143.7411597647192,
stimoli/03.practice/F04-Sadness-Face Forward.mp4,sadness,full,femmina,9,6,700,700,60,1,0,1,0,,,,,,,,,0,1,1,3,,,,,,,,,,,,,,,,,,,0.002229754522886651,0.004609934083418921,477.77883830815745,None,0.0061953306021678145,0.012639872835279675,-27.0,-129.0,1,0,0,7.141310692814841,click_1,0.0061953306021678145,None,483.8027857177681,None,483.8027857177681,None,0.005422036851086887,0.011084304735049955,490.944309379081,None,0.006085959731535695,0.012396434446600324,-1.0,4.0,1,0,0,1.6585319542555226,click_2,0.006085959731535695,None,491.44612827118317,None,491.44612827118317,None,491.44612827118317,None,0.00538579371823289,0.011003158605490171,,,01_control,001,control,53,m,11,1,sofia,2023_Mar_27_1526,CPO_EEG,2020.1.3,143.7411597647192,
stimoli/03.practice/F04-Disgust-Face Forward.mp4,disgust,full,femmina,9,6,700,700,58,1,0,1,0,,,,,,,,,0,2,2,1,,,,,,,,,,,,,,,,,,,0.002132892343070125,0.0063826402447375585,494.6868580475152,None,0.006157483789138496,0.012533067849290092,-107.0,78.0,1,0,0,4.627569092882368,click_1,0.006157483789138496,None,500.71054758563014,None,500.71054758563014,None,0.005432941865365137,0.01110739770501823,505.3384181700617,None,0.006106486815951939,0.012469241448343382,-41.0,53.0,1,0,0,5.82654774214916,click_2,0.006106486815951939,None,505.8402874176668,None,505.8402874176668,None,505.8402874176668,None,0.005338645572010137,0.010945426181024231,,,01_control,001,control,53,m,11,1,sofia,2023_Mar_27_1526,CPO_EEG,2020.1.3,143.7411597647192,
stimoli/03.practice/F04-Joy-Face Forward.mp4,joy,full,femmina,9,6,700,700,59,1,0,1,0,,,,,,,,,0,3,3,2,,,,,,,,,,,,,,,,,,,0.002311542123607069,0.0064060539507408976,513.2486769652755,None,0.006185387795085262,0.01259657351693022,124.0,75.0,1,0,0,7.854275021873946,click_1,0.006185387795085262,None,519.2691828809252,None,519.2691828809252,None,0.005401189031545073,0.01102368568899692,527.1236679846766,None,0.0060965440097788814,0.012474052483412379,103.0,22.0,1,0,0,8.321085934072471,click_2,0.0060965440097788814,None,527.6254984232633,None,527.6254984232633,None,527.6254984232633,None,0.005291176689752319,0.01083445163203578,,,01_control,001,control,53,m,11,1,sofia,2023_Mar_27_1526,CPO_EEG,2020.1.3,143.7411597647192,
stimoli/03.practice/F04-Neutral-Face Forward.mp4,neutral,full,femmina,9,6,700,700,62,1,0,1,0,,,,,,,,,0,4,4,5,,,,,,,,,,,,,,,,,,,0.0017422362725483254,0.005336721158528235,537.5282959441051,None,0.006192443979671225,0.012656871826038696,0.0,0.0,1,0,0,3.2684310764652764,click_1,0.006192443979671225,None,543.555820198138,None,543.555820198138,None,0.005221256308686861,0.010696856020331325,546.824435056154,None,0.006165181446704082,0.012598177195286553,0.0,0.0,1,0,0,1.2124598118180074,click_2,0.006165181446704082,None,547.3261798583121,None,547.3261798583121,None,547.3261798583121,None,0.00538835960378492,0.011044533509448229,,,01_control,001,control,53,m,11,1,sofia,2023_Mar_27_1526,CPO_EEG,2020.1.3,143.7411597647192,
stimoli/03.practice/F04-Anger-Face Forward.mp4,anger,full,femmina,9,6,700,700,57,1,0,1,0,,,,,,,,,0,5,5,0,,,,,,,,,,,,,,,,,,,0.005059284785602358,0.009141608657046163,550.1310971854805,None,0.006208801500179106,0.012659116975555662,-30.0,147.0,1,0,0,5.094382570966445,click_1,0.006208801500179106,None,556.1548043640582,None,556.1548043640582,None,0.005361417806852842,0.010973330186970998,561.2494268453206,None,0.006096864743994956,0.01242209330030164,0.0,0.0,1,0,0,5.345256575723397,click_2,0.006096864743994956,None,561.7511870427911,None,561.7511870427911,None,561.7511870427911,None,0.005290214482556621,0.010801095119859383,,,01_control,001,control,53,m,11,1,sofia,2023_Mar_27_1526,CPO_EEG,2020.1.3,143.7411597647192,
,,,,,,,,,1,0,1,0,,,,,,,,,,,,,,,,,,,,,,,,,,,,,,,,,,,,,,,,,,,,,,,,,,,,,,,,,,,,,,,,,,,,,,,,,n,6.286585358030607,01_control,001,control,53,m,11,1,sofia,2023_Mar_27_1526,CPO_EEG,2020.1.3,143.7411597647192,
,,,,,,,,,,,,,,,,,,,,,,,,,0,0,0,0,0,0,0,0,,,,,,,,,,,,,,,,,,,,,,,,,,,,,,,,,,,,,,,,,,,,,,,,,,,,,,,01_control,001,control,53,m,11,1,sofia,2023_Mar_27_1526,CPO_EEG,2020.1.3,143.7411597647192,
stimoli/01.full/F03-Surprise-Face Forward.mp4,surprised,full,femmina,2,6,720,576,50,,,,,,,,,,,,,,,,,0,0,0,0,,,,,,,,,0,0,0,49,,,0.0063354920994243,0.009968144531740109,582.9708820103201,None,0.00583899324919912,0.011935857994103571,25.0,-137.0,1,0,0,3.56074060436913,click_1,0.00583899324919912,None,588.9928751773673,None,588.9928751773673,None,0.004619235416612355,0.009486078787631413,592.55421459527,None,0.005812051451357547,0.011874276740854839,0.0,2.0,1,0,0,4.724924883701533,click_2,0.005812051451357547,None,593.0559962820321,None,593.0559962820321,None,593.0559962820321,None,0.0044303220965957735,0.009095101981984044,,,01_control,001,control,53,m,11,1,sofia,2023_Mar_27_1526,CPO_EEG,2020.1.3,143.7411597647192,
stimoli/01.full/M02-Disgust-Face Forward.mp4,disgusted,full,maschio,3,6,720,576,39,,,,,,,,,,,,,,,,,0,0,0,0,,,,,,,,,0,1,1,38,,,0.005054153014498297,0.009029671900862013,599.4075242027152,None,0.00617191689707397,0.012569631719088648,-86.0,58.0,1,0,0,5.26848560153303,click_1,0.00617191689707397,None,605.4337257427601,None,605.4337257427601,None,0.0054076037458798965,0.011079814436016022,610.70249295023,None,0.006101675779063953,0.012429470220922667,-58.0,82.0,1,0,0,4.355443461995492,click_2,0.006101675779063953,None,611.20425090255,None,611.20425090255,None,611.20425090255,None,0.005327419822606316,0.01090373054103111,,,01_control,001,control,53,m,11,1,sofia,2023_Mar_27_1526,CPO_EEG,2020.1.3,143.7411597647192,
stimoli/01.full/M03-Fear-Face Forward.mp4,fear,full,maschio,4,6,720,576,32,,,,,,,,,,,,,,,,,0,0,0,0,,,,,,,,,0,2,2,31,,,0.0014417069305636687,0.0050538322793727275,617.1688769632233,None,0.006202066051628208,0.01263185444258852,35.0,-136.0,1,0,0,7.338591046599504,click_1,0.006202066051628208,None,623.196400255049,None,623.196400255049,None,0.005421716115051822,0.011078531491875765,630.5352305704732,None,0.006107449022238143,0.012491692946241528,0.0,0.0,1,0,0,5.338116357776016,click_2,0.006107449022238143,None,631.0370263696054,None,631.0370263696054,None,631.0370263696054,None,0.005320042901985289,0.010878713157580933,,,01_control,001,control,53,m,11,1,sofia,2023_Mar_27_1526,CPO_EEG,2020.1.3,143.7411597647192,
stimoli/01.full/F03-Disgust-Face Forward.mp4,disgusted,full,femmina,2,6,720,576,38,,,,,,,,,,,,,,,,,0,0,0,0,,,,,,,,,0,3,3,37,,,0.0019609780129030696,0.0055006170960041345,637.9701116031906,None,0.006232856678252574,0.012717811608126794,-114.0,78.0,1,0,0,4.5230028430005405,click_1,0.006232856678252574,None,643.9956687852332,None,643.9956687852332,None,0.0053880388686593506,0.010998989041581808,648.5188368071144,None,0.006115467415838793,0.012460260849366023,-32.0,53.0,1,0,0,9.632155933995818,click_2,0.006115467415838793,None,649.0207718055367,None,649.0207718055367,None,649.0207718055367,None,0.005296629196891445,0.010835413839231478,,,01_control,001,control,53,m,11,1,sofia,2023_Mar_27_1526,CPO_EEG,2020.1.3,143.7411597647192,
stimoli/02.subtle/JF1_Anger.mp4,angry,subtle,femmina,5,10,1646,926,5,,,,,,,,,,,,,,,,,0,0,0,0,,,,,,,,,0,4,4,4,,,0.0020972906813767622,0.006062225289497292,660.2686790051553,None,0.006171275424094347,0.012566103625431424,-26.0,138.0,1,0,0,5.171000554231796,click_1,0.006171275424094347,None,671.0902085166877,None,671.0902085166877,None,0.005378416797611862,0.010984235200339754,676.2614476982721,None,0.00608884635312279,0.012423376244441897,-53.0,80.0,1,0,0,4.808443816087674,click_2,0.00608884635312279,None,676.7632406107837,None,676.7632406107837,None,676.7632406107837,None,0.00530785494538577,0.010907900104939472,,,01_control,001,control,53,m,11,1,sofia,2023_Mar_27_1526,CPO_EEG,2020.1.3,143.7411597647192,
stimoli/01.full/F01-Fear-Face Forward.mp4,fear,full,femmina,1,6,720,576,29,,,,,,,,,,,,,,,,,0,0,0,0,,,,,,,,,0,5,5,28,,,7.697657565586269e-06,0.0035973715075670043,683.168732311427,None,0.006201424579558079,0.012670984196120116,-57.0,-88.0,1,0,0,6.614206281800762,click_1,0.006201424579558079,None,689.195345355362,None,689.195345355362,None,0.005392208432567713,0.011015025826054625,695.8097187404578,None,0.006101996515099017,0.012449035099052708,3.0,3.0,1,0,0,4.564929412489619,click_2,0.006101996515099017,None,696.3115764415784,None,696.3115764415784,None,696.3115764415784,None,0.005266800777462777,0.010809754984620668,,,01_control,001,control,53,m,11,1,sofia,2023_Mar_27_1526,CPO_EEG,2020.1.3,143.7411597647192,
stimoli/01.full/M02-Fear-Face Forward.mp4,fear,full,maschio,3,6,720,576,31,,,,,,,,,,,,,,,,,0,0,0,0,,,,,,,,,0,6,6,30,,,0.0040573064870841336,0.008026089923987456,702.4836046329633,None,0.006202066050718713,0.01265462667652173,-50.0,-85.0,1,0,0,3.2197324936041696,click_1,0.006202066050718713,None,708.50977249576,None,708.50977249576,None,0.005403754917097103,0.011046457923839625,711.7297092979993,None,0.00610905270150397,0.012472448804146552,0.0,0.0,1,0,0,14.433076573721337,click_2,0.00610905270150397,None,712.2315609051416,None,712.2315609051416,None,712.2315609051416,None,0.005268083719784045,0.010772549643661478,,,01_control,001,control,53,m,11,1,sofia,2023_Mar_27_1526,CPO_EEG,2020.1.3,143.7411597647192,
stimoli/01.full/F01-Surprise-Face Forward.mp4,surprised,full,femmina,1,6,720,576,49,,,,,,,,,,,,,,,,,0,0,0,0,,,,,,,,,0,7,7,48,,,0.003517829056363553,0.00723451423982624,728.2785432313226,None,0.006174482780807011,0.012566745096592058,27.0,-127.0,1,0,0,4.369853475107448,click_1,0.006174482780807011,None,734.3019732942635,None,734.3019732942635,None,0.005409848896306357,0.011059928823669907,738.6721061301573,None,0.006098147686316224,0.012425942128174938,3.0,-2.0,1,0,0,4.920519771430918,click_2,0.006098147686316224,None,739.1739115513597,None,739.1739115513597,None,739.1739115513597,None,0.005325174673998845,0.010920408797574055,,,01_control,001,control,53,m,11,1,sofia,2023_Mar_27_1526,CPO_EEG,2020.1.3,143.7411597647192,
stimoli/01.full/M03-Neutral-Face Forward.mp4,neutral,full,maschio,4,6,720,576,56,,,,,,,,,,,,,,,,,0,0,0,0,,,,,,,,,0,8,8,55,,,0.0045595785795740085,0.008562680734939931,745.6941743493558,None,0.006199179430950608,0.012621911636415462,0.0,1.0,1,0,0,1.1496841394919102,click_1,0.006199179430950608,None,751.718628842093,None,751.718628842093,None,0.005442563935503131,0.011158715415149345,752.8686074169486,None,0.006131824934527685,0.012491692945332034,0.0,0.0,1,0,0,0.8499582402137094,click_2,0.006131824934527685,None,753.3703143722946,None,753.3703143722946,None,753.3703143722946,None,0.005338324835975072,0.01092650277496432,,,01_control,001,control,53,m,11,1,sofia,2023_Mar_27_1526,CPO_EEG,2020.1.3,143.7411597647192,
stimoli/02.subtle/JM2_Neutral.mp4,neutral,subtle,maschio,8,10,1646,926,28,,,,,,,,,,,,,,,,,0,0,0,0,,,,,,,,,0,9,9,27,,,0.005732829735279665,0.009080668874958064,755.8316294784322,None,0.006182501174407662,0.012604591908711882,-21.0,-91.0,1,0,0,3.6724582979450133,click_1,0.006182501174407662,None,766.8158983550106,None,766.8158983550106,None,0.00543454554372147,0.01108719135663705,770.4886065060596,None,0.006103920929490414,0.012480787931963278,2.0,0.0,1,0,0,2.285656828206811,click_2,0.006103920929490414,None,770.9904183419762,None,770.9904183419762,None,770.9904183419762,None,0.005257178705505794,0.010782813184960105,,,01_control,001,control,53,m,11,1,sofia,2023_Mar_27_1526,CPO_EEG,2020.1.3,143.7411597647192,
stimoli/02.subtle/JM1_Sadness.mp4,sad,subtle,maschio,7,10,1646,926,19,,,,,,,,,,,,,,,,,0,0,0,0,,,,,,,,,0,10,10,18,,,0.0020180689671178698,0.005430696715848171,774.877569413618,None,0.0062068770866972045,0.012635382535336248,-52.0,-36.0,1,0,0,5.066581201296685,click_1,0.0062068770866972045,None,785.3006861819372,None,785.3006861819372,None,0.0053960572613505065,0.011014384354893991,790.3675226888431,None,0.006097185479120526,0.012472448803237057,0.0,0.0,1,0,0,4.822810529881281,click_2,0.006097185479120526,None,790.869349599337,None,790.869349599337,None,790.869349599337,None,0.005309137887707038,0.010856582393898861,,,01_control,001,control,53,m,11,1,sofia,2023_Mar_27_1526,CPO_EEG,2020.1.3,143.7411597647192,
stimoli/01.full/M03-Surprise-Face Forward.mp4,surprised,full,maschio,4,6,720,576,52,,,,,,,,,,,,,,,,,0,0,0,0,,,,,,,,,0,11,11,51,,,0.006431071335100569,0.010173736110118625,797.3032244841929,None,0.006179935287946137,0.012604912644746946,27.0,-141.0,1,0,0,3.9791781596950386,click_1,0.006179935287946137,None,803.3273861452449,None,803.3273861452449,None,0.0054060000666140695,0.011078210756750195,807.3068247423212,None,0.006085638995500631,0.012418565208463406,0.0,3.0,1,0,0,4.954777871290389,click_2,0.006085638995500631,None,807.8086067498184,None,807.8086067498184,None,807.8086067498184,None,0.005296949932926509,0.01087165697299497,,,01_control,001,control,53,m,11,1,sofia,2023_Mar_27_1526,CPO_EEG,2020.1.3,143.7411597647192,
stimoli/02.subtle/JF1_Fear.mp4,fear,subtle,femmina,5,10,1646,926,1,,,,,,,,,,,,,,,,,0,0,0,0,,,,,,,,,0,12,12,0,,,0.004699419339885935,0.008232002237491542,814.3827560304721,None,0.006204311201145174,0.012632816649784218,1.0,0.0,1,0,0,18.601960272394535,click_1,0.006204311201145174,None,825.2048683187545,None,825.2048683187545,None,0.00536558736985171,0.010977499749969866,843.8070300131626,None,0.006045547033863841,0.01233613613567286,0.0,0.0,1,0,0,0.9823614614260805,click_2,0.006045547033863841,None,844.3088681494069,None,844.3088681494069,None,844.3088681494069,None,0.005344418814274832,0.010935483374851174,,,01_control,001,control,53,m,11,1,sofia,2023_Mar_27_1526,CPO_EEG,2020.1.3,143.7411597647192,
stimoli/02.subtle/JF1_Happiness.mp4,happy,subtle,femmina,5,10,1646,926,13,,,,,,,,,,,,,,,,,0,0,0,0,,,,,,,,,0,13,13,12,,,0.0030880432304911665,0.007105578491973574,846.9197233847112,None,0.006184104852763994,0.012645004606383736,117.0,76.0,1,0,0,4.620457741149039,click_1,0.006184104852763994,None,857.7408599950227,None,857.7408599950227,None,0.005418188024123083,0.011109001383374562,862.3615839467934,None,0.006114184471698536,0.012472128069020982,0.0,0.0,1,0,0,7.066609746771974,click_2,0.006114184471698536,None,862.8633778215121,None,862.8633778215121,None,862.8633778215121,None,0.005314590394846164,0.010852092094864929,,,01_control,001,control,53,m,11,1,sofia,2023_Mar_27_1526,CPO_EEG,2020.1.3,143.7411597647192,
stimoli/01.full/F01-Anger-Face Forward.mp4,angry,full,femmina,1,6,720,576,33,,,,,,,,,,,,,,,,,0,0,0,0,,,,,,,,,0,14,14,32,,,0.005681512026058044,0.009267657783311734,871.5483569993507,None,0.0061372774425763055,0.01252537019445299,-22.0,137.0,1,0,0,6.418691257258615,click_1,0.0061372774425763055,None,877.5751342599601,None,877.5751342599601,None,0.005346984699826862,0.010969802094223269,883.9941238014112,None,0.006090129295444058,0.012451600985514233,1.0,0.0,1,0,0,6.997498582348271,click_2,0.006090129295444058,None,884.4959722011959,None,884.4959722011959,None,884.4959722011959,None,0.005278667997117736,0.010802057327055081,,,01_control,001,control,53,m,11,1,sofia,2023_Mar_27_1526,CPO_EEG,2020.1.3,143.7411597647192,
stimoli/01.full/M02-Anger-Face Forward.mp4,angry,full,maschio,3,6,720,576,35,,,,,,,,,,,,,,,,,0,0,0,0,,,,,,,,,0,15,15,34,,,0.0029353730406000977,0.00701352734813554,893.1016889300004,None,0.0062011038444325095,0.012658475505304523,-24.0,142.0,1,0,0,7.665978474786243,click_1,0.0062011038444325095,None,899.1240942424097,None,899.1240942424097,None,0.005423961266387778,0.011101303727627965,906.7903023639506,None,0.006121240658103488,0.012480467197747203,1.0,2.0,1,0,0,4.230017845734437,click_2,0.006121240658103488,None,907.2920545430284,None,907.2920545430284,None,907.2920545430284,None,0.005323250257788459,0.01088897669887956,,,01_control,001,control,53,m,11,1,sofia,2023_Mar_27_1526,CPO_EEG,2020.1.3,143.7411597647192,
stimoli/02.subtle/JF1_Disgust.mp4,disgusted,subtle,femmina,5,10,1646,926,9,,,,,,,,,,,,,,,,,0,0,0,0,,,,,,,,,0,16,16,8,,,0.0017108041756728198,0.005340249251275964,913.1377117176294,None,0.006193085451741354,0.012642438719922211,-115.0,78.0,1,0,0,5.645292947150665,click_1,0.006193085451741354,None,923.9596103959416,None,923.9596103959416,None,0.00539124622446252,0.01102368568899692,929.6051143871769,None,0.006086921938731393,0.012457374226869433,-2.0,0.0,1,0,0,5.478093431589514,click_2,0.006086921938731393,None,930.1068947909957,None,930.1068947909957,None,930.1068947909957,None,0.005271291077406204,0.010799170706377481,,,01_control,001,control,53,m,11,1,sofia,2023_Mar_27_1526,CPO_EEG,2020.1.3,143.7411597647192,
stimoli/01.full/F03-Neutral-Face Forward.mp4,neutral,full,femmina,2,6,720,576,54,,,,,,,,,,,,,,,,,0,0,0,0,,,,,,,,,0,17,17,53,,,0.0017502546643299866,0.005805636737932218,937.1808253299091,None,0.006190840302224387,0.01265174005584413,0.0,-1.0,1,0,0,5.484717585809449,click_1,0.006190840302224387,None,943.2068684265219,None,943.2068684265219,None,0.005414018458395731,0.011076286342358799,948.6918053955437,None,0.006132787142632878,0.012520879894509562,0.0,0.0,1,0,0,0.5781437229461517,click_2,0.006132787142632878,None,949.1936922836126,None,949.1936922836126,None,949.1936922836126,None,0.0053485883781831944,0.010936766317172442,,,01_control,001,control,53,m,11,1,sofia,2023_Mar_27_1526,CPO_EEG,2020.1.3,143.7411597647192,
stimoli/01.full/M02-Neutral-Face Forward.mp4,neutral,full,maschio,3,6,720,576,55,,,,,,,,,,,,,,,,,0,0,0,0,,,,,,,,,0,18,18,54,,,0.0021803612262374372,0.0057600922700657975,951.3937453974427,None,0.0061776901384291705,0.012629930028197123,0.0,0.0,1,0,0,4.9690114797722345,click_1,0.0061776901384291705,None,957.4158588403739,None,957.4158588403739,None,0.00519912554682378,0.010623407548337127,962.3850217073918,None,0.0061430506848410005,0.012540444771730108,0.0,0.0,1,0,0,0.752381462503763,click_2,0.0061430506848410005,None,962.8868627302559,None,962.8868627302559,None,962.8868627302559,None,0.005368473991438805,0.010973009450935933,,,01_control,001,control,53,m,11,1,sofia,2023_Mar_27_1526,CPO_EEG,2020.1.3,143.7411597647192,
stimoli/02.subtle/JF2_Sadness.mp4,sad,subtle,femmina,6,8,1646,926,18,,,,,,,,,,,,,,,,,0,0,0,0,,,,,,,,,0,19,19,17,,,0.0047417564510396915,0.008276263763036695,965.2449782412909,None,0.006194047658937052,0.01263442032814055,-92.0,-20.0,1,0,0,4.530014445936104,click_1,0.006194047658937052,None,973.6260465605587,None,973.6260465605587,None,0.005410169629612938,0.01109328533311782,978.1563102181258,None,0.006101675779973448,0.01244807289185701,-100.0,-22.0,1,0,0,3.024548147558562,click_2,0.006101675779973448,None,978.6581743339607,None,978.6581743339607,None,978.6581743339607,None,0.005270328869301011,0.010786982749777962,,,01_control,001,control,53,m,11,1,sofia,2023_Mar_27_1526,CPO_EEG,2020.1.3,143.7411597647192,
stimoli/01.full/F01-Sadness-Face Forward.mp4,sad,full,femmina,1,6,720,576,45,,,,,,,,,,,,,,,,,0,0,0,0,,,,,,,,,0,20,20,44,,,0.002693859066312143,0.006710111385473283,983.284406279748,None,0.006185387795085262,0.01259432836650376,-91.0,-19.0,1,0,0,9.25495600789236,click_1,0.006185387795085262,None,989.3098457517913,None,989.3098457517913,None,0.005404075652222673,0.011048382337321527,998.5650644422153,None,0.006098468423260783,0.01244165817843168,4.0,3.0,1,0,0,1.5189881943606451,click_2,0.006098468423260783,None,999.0668695426825,None,999.0668695426825,None,999.0668695426825,None,0.005351795734895859,0.010970764300509472,,,01_control,001,control,53,m,11,1,sofia,2023_Mar_27_1526,CPO_EEG,2020.1.3,143.7411597647192,
stimoli/02.subtle/JF2_Disgust.mp4,disgusted,subtle,femmina,6,10,1646,926,10,,,,,,,,,,,,,,,,,0,0,0,0,,,,,,,,,0,21,21,9,,,0.0017922710394486785,0.0053800204750587,1002.2149676441836,None,0.006188595152707421,0.012617421336472034,-49.0,82.0,1,0,0,6.801895996961321,click_1,0.006188595152707421,None,1012.6405848679465,None,1012.6405848679465,None,0.005333513800906076,0.010935804109976743,1019.4427175678488,None,0.0061068075519870035,0.01243620567220205,0.0,0.0,1,0,0,2.634281770153393,click_2,0.0061068075519870035,None,1019.9445027827028,None,1019.9445027827028,None,1019.9445027827028,None,0.005297591403177648,0.010831565010448685,,,01_control,001,control,53,m,11,1,sofia,2023_Mar_27_1526,CPO_EEG,2020.1.3,143.7411597647192,
stimoli/02.subtle/JF2_Happiness.mp4,happy,subtle,femmina,6,9,1646,926,14,,,,,,,,,,,,,,,,,0,0,0,0,,,,,,,,,0,22,22,13,,,0.006455126511355047,0.010472020301676821,1024.1901936986983,None,0.006234781090824981,0.012685738037362171,114.0,-75.0,1,0,0,5.902786615827608,click_1,0.006234781090824981,None,1033.6969211298106,None,1033.6969211298106,None,0.005418508758339158,0.011096171955614409,1039.599948297407,None,0.006097826951190655,0.012422734772371768,82.0,49.0,1,0,0,6.774019575140301,click_2,0.006097826951190655,None,1040.1017341537322,None,1040.1017341537322,None,1040.1017341537322,None,0.005318759959664021,0.010879033893615997,,,01_control,001,control,53,m,11,1,sofia,2023_Mar_27_1526,CPO_EEG,2020.1.3,143.7411597647192,
stimoli/02.subtle/JM2_Fear.mp4,fear,subtle,maschio,8,10,1646,926,4,,,,,,,,,,,,,,,,,0,0,0,0,,,,,,,,,0,23,23,3,,,0.005018551352804934,0.008414500845901784,1048.4810381059656,None,0.006191802509420086,0.012610044415851007,-52.0,-80.0,1,0,0,3.1150674571308627,click_1,0.006191802509420086,None,1059.1087249088473,None,1059.1087249088473,None,0.005410490367466991,0.011057042202082812,1062.2240159187536,None,0.006103920930399909,0.012460581584491592,17.0,-96.0,1,0,0,8.147313902737551,click_2,0.006103920930399909,None,1062.7258255095207,None,1062.7258255095207,None,1062.7258255095207,None,0.005247235900242231,0.010712251333643508,,,01_control,001,control,53,m,11,1,sofia,2023_Mar_27_1526,CPO_EEG,2020.1.3,143.7411597647192,
stimoli/01.full/F01-Neutral-Face Forward.mp4,neutral,full,femmina,1,6,720,576,53,,,,,,,,,,,,,,,,,0,0,0,0,,,,,,,,,0,24,24,52,,,0.003106325166299939,0.007133803233955405,1072.4743700109561,None,0.0061937269229019876,0.012610685887011641,-1.0,1.0,1,0,0,1.4538345876235326,click_1,0.0061937269229019876,None,1078.4968968821927,None,1078.4968968821927,None,0.005404396388257737,0.011049023808482161,1079.950957588478,None,0.006008341693814145,0.012265253547411703,0.0,0.0,1,0,0,0.9735963964703842,click_2,0.006008341693814145,None,1080.4518973440522,None,1080.4518973440522,None,1080.4518973440522,None,0.005348909114218259,0.010918805119217723,,,01_control,001,control,53,m,11,1,sofia,2023_Mar_27_1526,CPO_EEG,2020.1.3,143.7411597647192,
stimoli/01.full/M03-Anger-Face Forward.mp4,angry,full,maschio,4,6,720,576,36,,,,,,,,,,,,,,,,,0,0,0,0,,,,,,,,,0,25,25,35,,,0.004755868822940101,0.008409048339672154,1083.0221047830669,None,0.006227724907148513,0.012675153760937974,-36.0,134.0,1,0,0,7.052738248885362,click_1,0.006227724907148513,None,1089.0460477023776,None,1089.0460477023776,None,0.0054060000666140695,0.011090398713349714,1096.0990309933309,None,0.006089808560318488,0.012405415045577683,5.0,10.0,1,0,0,4.446126988240394,click_2,0.006089808560318488,None,1096.6008672051607,None,1096.6008672051607,None,1096.6008672051607,None,0.0053364004224931705,0.010919767326413421,,,01_control,001,control,53,m,11,1,sofia,2023_Mar_27_1526,CPO_EEG,2020.1.3,143.7411597647192,
stimoli/02.subtle/JM1_Disgust.mp4,disgusted,subtle,maschio,7,10,1646,926,11,,,,,,,,,,,,,,,,,0,0,0,0,,,,,,,,,0,26,26,10,,,8.146686650434276e-05,0.0034312304205741384,1102.6707875857323,None,0.00620655635066214,0.012662645069212886,-87.0,-58.0,1,0,0,2.4319985810652724,click_1,0.00620655635066214,None,1113.0933892525322,None,1113.0933892525322,None,0.005391246225372015,0.011008611111719802,1115.5255664833771,None,0.006093657388191787,0.012433319050614955,-83.0,-57.0,1,0,0,2.5784198763749373,click_2,0.006093657388191787,None,1116.0273773570866,None,1116.0273773570866,None,1116.0273773570866,None,0.005189824211811356,0.010607370762954815,,,01_control,001,control,53,m,11,1,sofia,2023_Mar_27_1526,CPO_EEG,2020.1.3,143.7411597647192,
stimoli/02.subtle/JF1_Neutral.mp4,neutral,subtle,femmina,5,10,1646,926,25,,,,,,,,,,,,,,,,,0,0,0,0,,,,,,,,,0,27,27,24,,,0.0019080566244156216,0.005653287284076214,1120.2282387248574,None,0.006189878094119194,0.012619666485989,0.0,0.0,1,0,0,8.55796880652997,click_1,0.006189878094119194,None,1131.0544054330062,None,1131.0544054330062,None,0.005343135871953564,0.010992253592121415,1139.612637242802,None,0.006161332617921289,0.012563537739879393,0.0,0.0,1,0,0,0.8499499010858926,click_2,0.006161332617921289,None,1140.114399043951,None,1140.114399043951,None,1140.114399043951,None,0.0053950950532453135,0.011007328169398534,,,01_control,001,control,53,m,11,1,sofia,2023_Mar_27_1526,CPO_EEG,2020.1.3,143.7411597647192,
stimoli/02.subtle/JM1_Fear.mp4,fear,subtle,maschio,7,10,1646,926,3,,,,,,,,,,,,,,,,,0,0,0,0,,,,,,,,,0,28,28,2,,,0.006402846594028233,0.009945693033841962,1142.581989664613,None,0.006209763708284299,0.012679964796916465,23.0,-91.0,1,0,0,6.787870545943406,click_1,0.006209763708284299,None,1153.0056901718885,None,1153.0056901718885,None,0.005410169631431927,0.011064419122703839,1159.7937499518898,None,0.006089487823373929,0.012425300657923799,-1.0,0.0,1,0,0,1.198435323006379,click_2,0.006089487823373929,None,1160.2954848112408,None,1160.2954848112408,None,1160.2954848112408,None,0.0053418529278133065,0.010937087052298011,,,01_control,001,control,53,m,11,1,sofia,2023_Mar_27_1526,CPO_EEG,2020.1.3,143.7411597647192,
stimoli/02.subtle/JM2_Anger.mp4,angry,subtle,maschio,8,10,1646,926,8,,,,,,,,,,,,,,,,,0,0,0,0,,,,,,,,,0,29,29,7,,,0.006564497381987167,0.010307803628165857,1163.125353450731,None,0.006209763708284299,0.012665210954764916,-58.0,85.0,1,0,0,8.572023765231279,click_1,0.006209763708284299,None,1174.109990852618,None,1174.109990852618,None,0.0053960572613505065,0.011016950240446022,1182.6822131532422,None,0.006030151721461152,0.012319457880039408,0.0,0.0,1,0,0,1.0100108023780194,click_2,0.006030151721461152,None,1183.1839900289692,None,1183.1839900289692,None,1183.1839900289692,None,0.0054714301477361005,0.011177959556334827,,,01_control,001,control,53,m,11,1,sofia,2023_Mar_27_1526,CPO_EEG,2020.1.3,143.7411597647192,
stimoli/01.full/F03-Anger-Face Forward.mp4,angry,full,femmina,2,6,720,576,34,,,,,,,,,,,,,,,,,0,0,0,0,,,,,,,,,0,30,30,33,,,0.0033558575332790497,0.00691249560804863,1185.7945713559934,None,0.006150106870336458,0.012525690929578559,-23.0,132.0,1,0,0,5.038473208306641,click_1,0.006150106870336458,None,1191.8194351074721,None,1191.8194351074721,None,0.0055128050516941585,0.01124755920136522,1196.8583060280348,None,0.006050037333807268,0.012376548833344714,0.0,0.0,1,0,0,2.599198417361549,click_2,0.006050037333807268,None,1197.3601242786658,None,1197.3601242786658,None,1197.3601242786658,None,0.0052767435836358345,0.010777360679639969,,,01_control,001,control,53,m,11,1,sofia,2023_Mar_27_1526,CPO_EEG,2020.1.3,143.7411597647192,
stimoli/01.full/M03-Joy-Face Forward.mp4,happy,full,maschio,4,6,720,576,44,,,,,,,,,,,,,,,,,0,0,0,0,,,,,,,,,0,31,31,43,,,0.0025787149534153286,0.006219706513547862,1201.5673750221308,None,0.006163257032312686,0.012567707303787756,124.0,71.0,1,0,0,4.787655011559764,click_1,0.006163257032312686,None,1207.5897511475928,None,1207.5897511475928,None,0.005406641538684198,0.011059287351599778,1212.3776909724452,None,0.0061080904943082714,0.012462185262847925,53.0,82.0,1,0,0,3.9374613513491568,click_2,0.0061080904943082714,None,1212.8795072986618,None,1212.8795072986618,None,1212.8795072986618,None,0.005325816144249984,0.010894108469983621,,,01_control,001,control,53,m,11,1,sofia,2023_Mar_27_1526,CPO_EEG,2020.1.3,143.7411597647192,
stimoli/02.subtle/JF2_Surprise.mp4,surprised,subtle,femmina,6,10,1646,926,22,,,,,,,,,,,,,,,,,0,0,0,0,,,,,,,,,0,32,32,21,,,0.005715510009395075,0.009395310588843131,1218.4355221833634,None,0.006121882128354628,0.01247982572476758,22.0,-97.0,1,0,0,7.3871991819960385,click_1,0.006121882128354628,None,1228.860064621827,None,1228.860064621827,None,0.005411131838627625,0.011056721466047748,1236.2475752381783,None,0.0060776206037189695,0.012401886952829955,0.0,0.0,1,0,0,1.0588899594331451,click_2,0.0060776206037189695,None,1236.7493700751033,None,1236.7493700751033,None,1236.7493700751033,None,0.005367832520278171,0.01097749975087936,,,01_control,001,control,53,m,11,1,sofia,2023_Mar_27_1526,CPO_EEG,2020.1.3,143.7411597647192,
stimoli/01.full/F03-Fear-Face Forward.mp4,fear,full,femmina,2,6,720,576,30,,,,,,,,,,,,,,,,,0,0,0,0,,,,,,,,,0,33,33,29,,,0.004973006884938513,0.00857230280598742,1239.4071941656898,None,0.006148823926196201,0.012517351800852339,-53.0,-82.0,1,0,0,4.125468594844278,click_1,0.006148823926196201,None,1245.4309561900704,None,1245.4309561900704,None,0.005415942873696622,0.011100341520432266,1249.5567419925133,None,0.006090450031479122,0.012428187279510894,0.0,0.0,1,0,0,1.1078383953981756,click_2,0.006090450031479122,None,1250.05852175486,None,1250.05852175486,None,1250.05852175486,None,0.005325174672179855,0.010916880703916831,,,01_control,001,control,53,m,11,1,sofia,2023_Mar_27_1526,CPO_EEG,2020.1.3,143.7411597647192,
stimoli/02.subtle/JM1_Surprise.mp4,surprised,subtle,maschio,7,10,1646,926,23,,,,,,,,,,,,,,,,,0,0,0,0,,,,,,,,,0,34,34,22,,,0.005177315520995762,0.008561718528653728,1252.7648311390735,None,0.006180256023981201,0.012603308966390614,20.0,-91.0,1,0,0,4.244288018084262,click_1,0.006180256023981201,None,1263.1902193575538,None,1263.1902193575538,None,0.00541433919534029,0.011064419122703839,1267.4347575494771,None,0.0061000721016171155,0.012426583601154562,-2.0,4.0,1,0,0,1.491190032047598,click_2,0.0061000721016171155,None,1267.9366011382267,None,1267.9366011382267,None,1267.9366011382267,None,0.005350833527700161,0.01095504825207172,,,01_control,001,control,53,m,11,1,sofia,2023_Mar_27_1526,CPO_EEG,2020.1.3,143.7411597647192,
stimoli/02.subtle/JF1_Surprise.mp4,surprised,subtle,femmina,5,10,1646,926,21,,,,,,,,,,,,,,,,,0,0,0,0,,,,,,,,,0,35,35,20,,,0.00500379751156288,0.008971939477305568,1271.0475076912421,None,0.006170313218717638,0.012559368176880525,22.0,-92.0,1,0,0,5.052465302813289,click_1,0.006170313218717638,None,1281.8697553299858,None,1281.8697553299858,None,0.005415622137661558,0.011099379312327073,1286.9225323878904,None,0.006106166079916875,0.012488806324654433,0.0,2.0,1,0,0,0.9265701294998507,click_2,0.006106166079916875,None,1287.4242749448972,None,1287.4242749448972,None,1287.4242749448972,None,0.005366228841012344,0.010960180022266286,,,01_control,001,control,53,m,11,1,sofia,2023_Mar_27_1526,CPO_EEG,2020.1.3,143.7411597647192,
stimoli/02.subtle/JF2_Neutral.mp4,neutral,subtle,femmina,6,9,1646,926,26,,,,,,,,,,,,,,,,,0,0,0,0,,,,,,,,,0,36,36,25,,,0.005028173423852422,0.00875319773604133,1289.970035268097,None,0.006217461364030896,0.012684455095950398,-32.0,54.0,1,0,0,4.648407290707837,click_1,0.006217461364030896,None,1299.475087175961,None,1299.475087175961,None,0.005417867287178524,0.011072758250520565,1304.1237157742949,None,0.006080507225306064,0.012403811367221351,0.0,0.0,1,0,0,0.6546128848513035,click_2,0.006080507225306064,None,1304.6254544824737,None,1304.6254544824737,None,1304.6254544824737,None,0.005474316769323195,0.011186298685061047,,,01_control,001,control,53,m,11,1,sofia,2023_Mar_27_1526,CPO_EEG,2020.1.3,143.7411597647192,
stimoli/01.full/M02-Sadness-Face Forward.mp4,sad,full,maschio,3,6,720,576,47,,,,,,,,,,,,,,,,,0,0,0,0,,,,,,,,,0,37,37,46,,,0.006765277924387192,0.010382214309174742,1306.8908007230661,None,0.00612605169226299,0.012492334417402162,-17.0,-92.0,1,0,0,2.7455655083404054,click_1,0.00612605169226299,None,1312.5570479743615,None,1312.5570479743615,None,0.0053950950532453135,0.011054155580495717,1315.3029274829437,None,0.006106807550168014,0.01244229964868282,0.0,6.0,1,0,0,1.0311325305528953,click_2,0.006106807550168014,None,1315.8048368225104,None,1315.8048368225104,None,1315.8048368225104,None,0.005375530176934262,0.010967877679831872,,,01_control,001,control,53,m,11,1,sofia,2023_Mar_27_1526,CPO_EEG,2020.1.3,143.7411597647192,
stimoli/01.full/M02-Joy-Face Forward.mp4,happy,full,maschio,3,6,720,576,43,,,,,,,,,,,,,,,,,0,0,0,0,,,,,,,,,0,38,38,42,,,0.0008958147845987696,0.004956970100465696,1318.432758724652,None,0.006193406187776418,0.012606516324012773,117.0,84.0,1,0,0,4.341629055061276,click_1,0.006193406187776418,None,1324.4552846336815,None,1324.4552846336815,None,0.005411773309788259,0.011092964598901744,1328.797182785987,None,0.006112260058216634,0.012466996297916921,52.0,81.0,1,0,0,3.428561898139378,click_2,0.006112260058216634,None,1329.2988595921784,None,1329.2988595921784,None,1329.2988595921784,None,0.005405679330579005,0.011037156587917707,,,01_control,001,control,53,m,11,1,sofia,2023_Mar_27_1526,CPO_EEG,2020.1.3,143.7411597647192,
stimoli/01.full/F03-Sadness-Face Forward.mp4,sad,full,femmina,2,6,720,576,46,,,,,,,,,,,,,,,,,0,0,0,0,,,,,,,,,0,39,39,45,,,0.0033664418097032467,0.007046563125186367,1334.3280417289966,None,0.006204311201145174,0.01265687182694819,-96.0,-21.0,1,0,0,3.101106794722,click_1,0.006204311201145174,None,1340.3499123750094,None,1340.3499123750094,None,0.005415622138571052,0.0111009829915929,1343.451248175014,None,0.006115467414929299,0.012491692945332034,0.0,0.0,1,0,0,1.379634630730834,click_2,0.006115467414929299,None,1343.9530032407133,None,1343.9530032407133,None,1343.9530032407133,None,0.005312024509294133,0.010871336236959905,,,01_control,001,control,53,m,11,1,sofia,2023_Mar_27_1526,CPO_EEG,2020.1.3,143.7411597647192,
stimoli/02.subtle/JM1_Anger.mp4,angry,subtle,maschio,7,10,1646,926,7,,,,,,,,,,,,,,,,,0,0,0,0,,,,,,,,,0,40,40,6,,,0.003765757744986331,0.007179668436947395,1346.932453063539,None,0.006186350003190455,0.012605874851942644,-79.0,-56.0,1,0,0,4.962125605227811,click_1,0.006186350003190455,None,1357.3587989987914,None,1357.3587989987914,None,0.00538579371823289,0.011059287351599778,1362.3212007574498,None,0.006096223273743817,0.012471486597860348,-98.0,-20.0,1,0,0,5.373553161299242,click_2,0.006096223273743817,None,1362.82305621342,None,1362.82305621342,None,1362.82305621342,None,0.005270008134175441,0.010781530242638837,,,01_control,001,control,53,m,11,1,sofia,2023_Mar_27_1526,CPO_EEG,2020.1.3,143.7411597647192,
stimoli/02.subtle/JF1_Sadness.mp4,sad,subtle,femmina,5,10,1646,926,17,,,,,,,,,,,,,,,,,0,0,0,0,,,,,,,,,0,41,41,16,,,0.0017261994880755083,0.005855671505742066,1369.8263992415245,None,0.006186350003190455,0.012630892236302316,-15.0,-103.0,1,0,0,3.5609308006332867,click_1,0.006186350003190455,None,1380.648285411145,None,1380.648285411145,None,0.005448337177767826,0.011148131137815653,1384.209501025071,None,0.006101996515099017,0.012429149485797097,3.0,5.0,1,0,0,10.021350733458348,click_2,0.006101996515099017,None,1384.7112881643402,None,1384.7112881643402,None,1384.7112881643402,None,0.005326457615410618,0.010877109478315106,,,01_control,001,control,53,m,11,1,sofia,2023_Mar_27_1526,CPO_EEG,2020.1.3,143.7411597647192,
stimoli/01.full/F03-Joy-Face Forward.mp4,happy,full,femmina,2,6,720,576,42,,,,,,,,,,,,,,,,,0,0,0,0,,,,,,,,,0,42,42,41,,,0.00404479779626854,0.007656923145077599,1396.3528086182964,None,0.006182180437463103,0.012636665477657516,22.0,-94.0,1,0,0,5.86831330232053,click_1,0.006182180437463103,None,1402.373531351272,None,1402.373531351272,None,0.005416584344857256,0.011071154572164232,1408.2420649990122,None,0.006083714582018729,0.012416640794981504,0.0,0.0,1,0,0,1.1706358777510104,click_2,0.006083714582018729,None,1408.7439294355822,None,1408.7439294355822,None,1408.7439294355822,None,0.005342494399883435,0.010918484383182658,,,01_control,001,control,53,m,11,1,sofia,2023_Mar_27_1526,CPO_EEG,2020.1.3,143.7411597647192,
stimoli/02.subtle/JM2_Sadness.mp4,sad,subtle,maschio,8,10,1646,926,20,,,,,,,,,,,,,,,,,0,0,0,0,,,,,,,,,0,43,43,19,,,0.002670124626092729,0.006540121469697624,1411.5228812841747,None,0.006176727931233472,0.012593366159308061,-75.0,-51.0,1,0,0,9.66682778289578,click_1,0.006176727931233472,None,1422.145528046412,None,1422.145528046412,None,0.00540535859636293,0.011033628496079473,1431.8126101727098,None,0.0060955818016736885,0.012468599975363759,0.0,0.0,1,0,0,0.8012635061804758,click_2,0.0060955818016736885,None,1432.3143703701803,None,1432.3143703701803,None,1432.3143703701803,None,0.005238255301264871,0.010718345311943267,,,01_control,001,control,53,m,11,1,sofia,2023_Mar_27_1526,CPO_EEG,2020.1.3,143.7411597647192,
stimoli/01.full/F01-Joy-Face Forward.mp4,happy,full,femmina,1,6,720,576,41,,,,,,,,,,,,,,,,,0,0,0,0,,,,,,,,,0,44,44,40,,,0.00026941798114421545,0.004061476051901991,1434.719340875326,None,0.006156842318887357,0.01253980329965998,58.0,36.0,1,0,0,7.610307418744924,click_1,0.006156842318887357,None,1440.74343389894,None,1440.74343389894,None,0.005370077669795137,0.010974292393257201,1448.3539966232943,None,0.006093015917031153,0.012430111692992796,0.0,0.0,1,0,0,1.1147332505406666,click_2,0.006093015917031153,None,1448.8557500853153,None,1448.8557500853153,None,1448.8557500853153,None,0.005269366662105313,0.010800453648698749,,,01_control,001,control,53,m,11,1,sofia,2023_Mar_27_1526,CPO_EEG,2020.1.3,143.7411597647192,
stimoli/02.subtle/JM2_Disgust.mp4,disgusted,subtle,maschio,8,10,1646,926,12,,,,,,,,,,,,,,,,,0,0,0,0,,,,,,,,,0,45,45,11,,,0.003864865074319823,0.007629019140949822,1451.5841296131416,None,0.006218102836101025,0.01268317215362913,,,,,,,,0.006218102836101025,20.006573477981874,1462.210620713368,None,1462.210620713368,None,0.0060609423480855185,0.01235313512825087,1482.2115203769804,None,0.006142729949715431,0.01253691667898238,,,,,,,,0.006142729949715431,20.007594058949508,1482.7124466616547,None,1482.7124466616547,None,1482.7124466616547,None,0.005837389570842788,0.011926556659091148,,,01_control,001,control,53,m,11,1,sofia,2023_Mar_27_1526,CPO_EEG,2020.1.3,143.7411597647192,
stimoli/02.subtle/JM2_Happiness.mp4,happy,subtle,maschio,8,10,1646,926,16,,,,,,,,,,,,,,,,,0,0,0,0,,,,,,,,,0,46,46,15,,,0.003950180766878475,0.007773991671456315,1504.3252064254907,None,0.006196292809363513,0.01263377885788941,67.0,-12.0,1,0,0,15.095916970510189,click_1,0.006196292809363513,None,1514.950938344337,None,1514.950938344337,None,0.005381944890359591,0.011038760267183534,1530.0471077338357,None,0.006029510250300518,0.012370134119919385,0.0,0.0,1,0,0,1.0032452037185067,click_2,0.006029510250300518,None,1530.5489882071902,None,1530.5489882071902,None,1530.5489882071902,None,0.005349229850253323,0.010964670323119208,,,01_control,001,control,53,m,11,1,sofia,2023_Mar_27_1526,CPO_EEG,2020.1.3,143.7411597647192,
stimoli/02.subtle/JF2_Fear.mp4,fear,subtle,femmina,6,10,1646,926,2,,,,,,,,,,,,,,,,,0,0,0,0,,,,,,,,,0,47,47,1,,,0.004645215009986714,0.008461328257908463,1533.1652276325344,None,0.006189236623868055,0.012632816649784218,13.0,-64.0,1,0,0,7.213563142594467,click_1,0.006189236623868055,None,1543.5858542089504,None,1543.5858542089504,None,0.005392849902818853,0.011057683672333951,1550.7996790718676,None,0.006100072100707621,0.012456412019673735,0.0,0.0,1,0,0,1.1706381229005274,click_2,0.006100072100707621,None,1551.3014703807007,None,1551.3014703807007,None,1551.3014703807007,None,0.0053242124668031465,0.010875505800868268,,,01_control,001,control,53,m,11,1,sofia,2023_Mar_27_1526,CPO_EEG,2020.1.3,143.7411597647192,
stimoli/02.subtle/JM1_Neutral.mp4,neutral,subtle,maschio,7,10,1646,926,27,,,,,,,,,,,,,,,,,0,0,0,0,,,,,,,,,0,48,48,26,,,0.000848345903250447,0.00462757454624807,1554.088891255206,None,0.0062200272504924214,0.012664569483604282,0.0,0.0,1,0,0,6.2094622160520885,click_1,0.0062200272504924214,None,1564.5124538461346,None,1564.5124538461346,None,0.005383227833590354,0.011003800076650805,1570.7220953534384,None,0.006181859703247028,0.012586951445882733,0.0,0.0,1,0,0,0.9266288241315124,click_2,0.006181859703247028,None,1571.2239078308262,None,1571.2239078308262,None,1571.2239078308262,None,0.005391566960497585,0.01100412081268587,,,01_control,001,control,53,m,11,1,sofia,2023_Mar_27_1526,CPO_EEG,2020.1.3,143.7411597647192,
stimoli/02.subtle/JM2_Surprise.mp4,surprised,subtle,maschio,8,10,1646,926,24,,,,,,,,,,,,,,,,,0,0,0,0,,,,,,,,,0,49,49,23,,,0.0006587911093447474,0.004044156325107906,1573.7736260324486,None,0.006186029267155391,0.01259946013760782,24.0,-95.0,1,0,0,2.703924714352979,click_1,0.006186029267155391,None,1584.7600480077185,None,1584.7600480077185,None,0.0053886803398199845,0.011043250567126961,1587.464271006263,None,0.006117391829320695,0.012495221038989257,19.0,-88.0,1,0,0,3.024337424209989,click_2,0.006117391829320695,None,1587.966028317113,None,1587.966028317113,None,1587.966028317113,None,0.0053312686513891094,0.010909503784205299,,,01_control,001,control,53,m,11,1,sofia,2023_Mar_27_1526,CPO_EEG,2020.1.3,143.7411597647192,
stimoli/01.full/M02-Surprise-Face Forward.mp4,surprised,full,maschio,3,6,720,576,51,,,,,,,,,,,,,,,,,0,0,0,0,,,,,,,,,0,50,50,50,,,0.0036518965744107845,0.007283586800440389,1592.590524441343,None,0.006201424579558079,0.01262576046428876,21.0,-99.0,1,0,0,6.557978749336144,click_1,0.006201424579558079,None,1598.615061042417,None,1598.615061042417,None,0.005356927506909415,0.010956972666463116,1605.1732742495428,None,0.0061064868150424445,0.012457694962904498,0.0,-3.0,1,0,0,6.244538833394472,click_2,0.0061064868150424445,None,1605.6750578607184,None,1605.6750578607184,None,1605.6750578607184,None,0.00529951581847854,0.01086909108744294,,,01_control,001,control,53,m,11,1,sofia,2023_Mar_27_1526,CPO_EEG,2020.1.3,143.7411597647192,
stimoli/01.full/M03-Sadness-Face Forward.mp4,sad,full,maschio,4,6,720,576,48,,,,,,,,,,,,,,,,,0,0,0,0,,,,,,,,,0,51,51,47,,,0.006017322292791505,0.009889885022857925,1613.5177148736689,None,0.006184746324834123,0.012616138394150767,-16.0,-99.0,1,0,0,4.446232510282243,click_1,0.006184746324834123,None,1619.5381050037336,None,1619.5381050037336,None,0.005415622137661558,0.011097775633970741,1623.9846088564104,None,0.006121240657193994,0.01248463676074607,0.0,0.0,1,0,0,1.6792123501199967,click_2,0.006121240657193994,None,1624.4863716197665,None,1624.4863716197665,None,1624.4863716197665,None,0.005289573011395987,0.010847281059795932,,,01_control,001,control,53,m,11,1,sofia,2023_Mar_27_1526,CPO_EEG,2020.1.3,143.7411597647192,
stimoli/01.full/M03-Disgust-Face Forward.mp4,disgusted,full,maschio,4,6,720,576,40,,,,,,,,,,,,,,,,,0,0,0,0,,,,,,,,,0,52,52,39,,,0.004476187299587764,0.00804405112285167,1627.7784139748387,None,0.006216819893779757,0.012703699238045374,-54.0,87.0,1,0,0,7.352419565902892,click_1,0.006216819893779757,None,1633.8015063030975,None,1633.8015063030975,None,0.005439677314825531,0.01109873784116644,1641.1541131786448,None,0.006107449022238143,0.012486240439102403,0.0,0.0,1,0,0,0.9753710270470037,click_2,0.006107449022238143,None,1641.6559542015098,None,1641.6559542015098,None,1641.6559542015098,None,0.0051599957932921825,0.010550279810559005,,,01_control,001,control,53,m,11,1,sofia,2023_Mar_27_1526,CPO_EEG,2020.1.3,143.7411597647192,
stimoli/02.subtle/JF2_Anger.mp4,angry,subtle,femmina,6,9,1646,926,6,,,,,,,,,,,,,,,,,0,0,0,0,,,,,,,,,0,53,53,5,,,0.00424557833957806,0.00789106019965402,1644.2782840768846,None,0.006210084444319364,0.012664248748478713,-18.0,96.0,1,0,0,5.296771923567576,click_1,0.006210084444319364,None,1653.7802274144337,None,1653.7802274144337,None,0.0054085659521661,0.011086870620601985,1659.0772543228754,None,0.006067357060601353,0.012393227088978165,0.0,0.0,1,0,0,0.5781684195944763,click_2,0.006067357060601353,None,1659.5790398584654,None,1659.5790398584654,None,1659.5790398584654,None,0.005350833527700161,0.010968519150083011,,,01_control,001,control,53,m,11,1,sofia,2023_Mar_27_1526,CPO_EEG,2020.1.3,143.7411597647192,
stimoli/02.subtle/JM1_Happiness.mp4,happy,subtle,maschio,7,10,1646,926,15,,,,,,,,,,,,,,,,,0,0,0,0,,,,,,,,,0,54,54,14,,,0.005763620361904032,0.009566904182975122,1661.7623823220752,None,0.006209763708284299,0.012681568475272798,57.0,-80.0,1,0,0,3.331074284951683,click_1,0.006209763708284299,None,1672.1875867590047,None,1672.1875867590047,None,0.005416584344857256,0.011133377295664104,1675.5189218020728,None,0.0061000721016171155,0.012423696979567467,83.0,-52.0,1,0,0,4.703985333398123,click_2,0.0061000721016171155,None,1676.0205905898715,None,1676.0205905898715,None,1676.0205905898715,None,0.005330947915354045,0.010884807135880692,,,01_control,001,control,53,m,11,1,sofia,2023_Mar_27_1526,CPO_EEG,2020.1.3,143.7411597647192,
stimoli/01.full/F01-Disgust-Face Forward.mp4,disgusted,full,femmina,1,6,720,576,37,,,,,,,,,,,,,,,,,0,0,0,0,,,,,,,,,0,55,55,36,,,0.0008287810260299011,0.004688193592301104,1682.3209823364436,None,0.006157163054922421,0.012533067850199586,-52.0,85.0,1,0,0,6.223445650695794,click_1,0.006157163054922421,None,1688.3432458836783,None,1688.3432458836783,None,0.005338966307135706,0.010914314818364801,1694.5669311239349,None,0.006131504199402116,0.012526332400739193,-79.0,55.0,1,0,0,3.8677584295746783,click_2,0.006131504199402116,None,1695.0687525819226,None,1695.0687525819226,None,1695.0687525819226,None,0.00533672115761874,0.010911107461652136,,,01_control,001,control,53,m,11,1,sofia,2023_Mar_27_1526,CPO_EEG,2020.1.3,143.7411597647192,
,,,,,,,,,,,,,,,,,,,,,,,,,0,0,0,0,,,,,,,,,,,,,,,,,,,,,,,,,,,,,,,,,,,,,,,,,,,,,,,,,,,,,,,,,,,01_control,001,control,53,m,11,1,sofia,2023_Mar_27_1526,CPO_EEG,2020.1.3,143.7411597647192,
,,,,,,,,,,,,,,,,,,,,,,,,,1,0,1,0,,,,,0,0,0,0,,,,,,,,,,,,,,,,,,,,,,,,,,,,,,,,,,,,,,,,,,,,,,,,,,,01_control,001,control,53,m,11,1,sofia,2023_Mar_27_1526,CPO_EEG,2020.1.3,143.7411597647192,
stimoli/02.subtle/JF1_Sadness.mp4,sad,subtle,femmina,5,10,1646,926,17,,,,,,,,,,,,,,,,,1,0,1,0,,,,,,,,,0,0,0,16,,,0.001037579959302093,0.006118033300481329,1709.476682515286,None,0.00592527115077246,0.012108093060305691,-51.0,-83.0,1,0,0,3.7621517131137807,click_1,0.00592527115077246,None,1720.2984381454803,None,1720.2984381454803,None,0.004544824736512965,0.009328597563580843,1724.061066151095,None,0.005615119737740315,0.011520826010382734,-17.0,-98.0,1,0,0,5.930711789475026,click_2,0.005615119737740315,None,1724.562953680634,None,1724.562953680634,None,1724.562953680634,None,0.0044062669194318005,0.00905436854918662,,,01_control,001,control,53,m,11,1,sofia,2023_Mar_27_1526,CPO_EEG,2020.1.3,143.7411597647192,
stimoli/02.subtle/JM1_Disgust.mp4,disgusted,subtle,maschio,7,10,1646,926,11,,,,,,,,,,,,,,,,,1,0,1,0,,,,,,,,,0,1,1,10,,,0.005870104611858551,0.009807455950976873,1732.0789821260419,None,0.006193726923811482,0.012639872835279675,-84.0,-57.0,1,0,0,7.48471277477438,click_1,0.006193726923811482,None,1742.5061308627278,None,1742.5061308627278,None,0.005392849903728347,0.011038760267183534,1749.9911024712042,None,0.006110335643825238,0.012463788941204257,-81.0,-56.0,1,0,0,6.948059741512225,click_2,0.006110335643825238,None,1750.4928652345602,None,1750.4928652345602,None,1750.4928652345602,None,0.005377454591325659,0.011002196399203967,,,01_control,001,control,53,m,11,1,sofia,2023_Mar_27_1526,CPO_EEG,2020.1.3,143.7411597647192,
stimoli/01.full/M03-Joy-Face Forward.mp4,happy,full,maschio,4,6,720,576,44,,,,,,,,,,,,,,,,,1,0,1,0,,,,,,,,,0,2,2,43,,,0.0029530135043387418,0.0064737291804704,1759.0215165538107,None,0.006159087468404323,0.012598818666447187,85.0,-54.0,1,0,0,7.756997169828537,click_1,0.006159087468404323,None,1765.0483467358085,None,1765.0483467358085,None,0.005422357587121951,0.011079814435106528,1772.8055780426916,None,0.006044905563612701,0.012376548833344714,2.0,-2.0,1,0,0,2.808466267586482,click_2,0.006044905563612701,None,1773.3074325364546,None,1773.3074325364546,None,1773.3074325364546,None,0.0051413931214483455,0.010506018284104357,,,01_control,001,control,53,m,11,1,sofia,2023_Mar_27_1526,CPO_EEG,2020.1.3,143.7411597647192,
stimoli/01.full/F01-Neutral-Face Forward.mp4,neutral,full,femmina,1,6,720,576,53,,,,,,,,,,,,,,,,,1,0,1,0,,,,,,,,,0,3,3,52,,,0.004037741611682577,0.007778161237183667,1777.6955249673488,None,0.00616069114767015,0.012537558150143013,0.0,-1.0,1,0,0,0.9544744553259079,click_1,0.00616069114767015,None,1783.7218262561933,None,1783.7218262561933,None,0.005432621130239568,0.01112439669759624,1784.6766188813249,None,0.006105203872721177,0.012449997306248406,0.0,0.0,1,0,0,0.668694785351363,click_2,0.006105203872721177,None,1785.1783941533736,None,1785.1783941533736,None,1785.1783941533736,None,0.005332872328835947,0.010888655962844496,,,01_control,001,control,53,m,11,1,sofia,2023_Mar_27_1526,CPO_EEG,2020.1.3,143.7411597647192,
stimoli/01.full/F03-Disgust-Face Forward.mp4,disgusted,full,femmina,2,6,720,576,38,,,,,,,,,,,,,,,,,1,0,1,0,,,,,,,,,0,4,4,37,,,0.003268938161454571,0.007142463097807195,1787.5359596026988,None,0.006165502181829652,0.012546218013085308,-54.0,85.0,1,0,0,4.606352747678102,click_1,0.006165502181829652,None,1793.5596417638922,None,1793.5596417638922,None,0.005415301401626493,0.011070833836129168,1798.1662626466082,None,0.005971777824925084,0.012193408753773838,-84.0,57.0,1,0,0,2.95469736663199,click_2,0.005971777824925084,None,1798.6680587664764,None,1798.6680587664764,None,1798.6680587664764,None,0.0051955974549855455,0.010630463733832585,,,01_control,001,control,53,m,11,1,sofia,2023_Mar_27_1526,CPO_EEG,2020.1.3,143.7411597647192,
stimoli/02.subtle/JM2_Fear.mp4,fear,subtle,maschio,8,10,1646,926,4,,,,,,,,,,,,,,,,,1,0,1,0,,,,,,,,,0,5,5,3,,,0.0003101514139416395,0.003731118291398161,1803.205726607463,None,0.006178652345624869,0.012591441744916665,-92.0,-18.0,1,0,0,3.9797250140481992,click_1,0.006178652345624869,None,1813.8299549173912,None,1813.8299549173912,None,0.005110923232678033,0.010455983518113499,1817.8096812143826,None,0.006106807551077509,0.012460581583582098,3.0,0.0,1,0,0,9.172213576614013,click_2,0.006106807551077509,None,1818.3115074834054,None,1818.3115074834054,None,1818.3115074834054,None,0.005275781376440136,0.010863638580303814,,,01_control,001,control,53,m,11,1,sofia,2023_Mar_27_1526,CPO_EEG,2020.1.3,143.7411597647192,
stimoli/01.full/M03-Sadness-Face Forward.mp4,sad,full,maschio,4,6,720,576,48,,,,,,,,,,,,,,,,,1,0,1,0,,,,,,,,,0,6,6,47,,,0.0036961580999559374,0.007778481971399742,1829.070891247508,None,0.006177369402394106,0.012629609292162058,,,,,,,,0.006177369402394106,20.007273002522197,1835.097995658522,None,1835.097995658522,None,0.006006096545206674,0.012261725456482964,1855.0996432777652,None,0.006122844335550326,0.01250195648844965,-15.0,-93.0,1,0,0,4.543714029492548,click_2,0.006122844335550326,None,1855.6014563966241,None,1855.6014563966241,None,1855.6014563966241,None,0.005315873337167432,0.010876468007154472,,,01_control,001,control,53,m,11,1,sofia,2023_Mar_27_1526,CPO_EEG,2020.1.3,143.7411597647192,
stimoli/01.full/M03-Surprise-Face Forward.mp4,surprised,full,maschio,4,6,720,576,52,,,,,,,,,,,,,,,,,1,0,1,0,,,,,,,,,0,7,7,51,,,0.004990005875697534,0.008607583731645718,1861.7303886161922,None,0.006162615562061546,0.012555198612972163,23.0,-100.0,1,0,0,2.1253826376796496,click_1,0.006162615562061546,None,1867.753055969661,None,1867.753055969661,None,0.005448337177767826,0.011140112745124497,1869.878763512595,None,0.006113863735663472,0.012471807332985918,0.0,0.0,1,0,0,4.703975069856824,click_2,0.006113863735663472,None,1870.3805249930078,None,1870.3805249930078,None,1870.3805249930078,None,0.005311383039042994,0.010841507817531237,,,01_control,001,control,53,m,11,1,sofia,2023_Mar_27_1526,CPO_EEG,2020.1.3,143.7411597647192,
stimoli/01.full/F03-Joy-Face Forward.mp4,happy,full,femmina,2,6,720,576,42,,,,,,,,,,,,,,,,,1,0,1,0,,,,,,,,,0,8,8,41,,,0.004243333188242104,0.007792594341481163,1876.670522337317,None,0.006151069076622662,0.012548142427476705,85.0,61.0,1,0,0,6.857552940632559,click_1,0.006151069076622662,None,1882.697043330109,None,1882.697043330109,None,0.005429413771707914,0.011125038167847379,1889.5549073843617,None,0.0060942988593524205,0.012438130085683952,0.0,0.0,1,0,0,1.233240918689262,click_2,0.0060942988593524205,None,1890.0566768831673,None,1890.0566768831673,None,1890.0566768831673,None,0.005332551593710377,0.01095793487274932,,,01_control,001,control,53,m,11,1,sofia,2023_Mar_27_1526,CPO_EEG,2020.1.3,143.7411597647192,
stimoli/01.full/F03-Sadness-Face Forward.mp4,sad,full,femmina,2,6,720,576,46,,,,,,,,,,,,,,,,,1,0,1,0,,,,,,,,,0,9,9,45,,,0.0038863543641127762,0.007531194753028103,1892.8763044320544,None,0.006185708531120326,0.012590800274665526,-18.0,-99.0,1,0,0,5.860909760372124,click_1,0.006185708531120326,None,1898.903151292308,None,1898.903151292308,None,0.005437752900434134,0.011093285334027314,1904.7643076984264,None,0.006122844336459821,0.012472128069930477,-1.0,1.0,1,0,0,3.568263139258306,click_2,0.006122844336459821,None,1905.2661095915369,None,1905.2661095915369,None,1905.2661095915369,None,0.0053123452453291975,0.01086620446494635,,,01_control,001,control,53,m,11,1,sofia,2023_Mar_27_1526,CPO_EEG,2020.1.3,143.7411597647192,
stimoli/02.subtle/JF2_Disgust.mp4,disgusted,subtle,femmina,6,10,1646,926,10,,,,,,,,,,,,,,,,,1,0,1,0,,,,,,,,,0,10,10,9,,,0.003108891050942475,0.00712193601339095,1910.428890972958,None,0.006202707522788842,0.012630250764232187,-89.0,54.0,1,0,0,5.101208467935976,click_1,0.006202707522788842,None,1920.8513790993234,None,1920.8513790993234,None,0.005409528160271293,0.011088153563832748,1925.9528759086438,None,0.006112901529377268,0.012495221038079762,-56.0,80.0,1,0,0,3.4216163667579167,click_2,0.006112901529377268,None,1926.454648935542,None,1926.454648935542,None,1926.454648935542,None,0.005329344236997713,0.01091720144086139,,,01_control,001,control,53,m,11,1,sofia,2023_Mar_27_1526,CPO_EEG,2020.1.3,143.7411597647192,
stimoli/01.full/M03-Anger-Face Forward.mp4,angry,full,maschio,4,6,720,576,36,,,,,,,,,,,,,,,,,1,0,1,0,,,,,,,,,0,11,11,35,,,0.0011055759250666597,0.004667345770030806,1931.4585272715144,None,0.006187312209476659,0.012601063816873648,-13.0,96.0,1,0,0,5.0666132748647215,click_1,0.006187312209476659,None,1937.4826302379347,None,1937.4826302379347,None,0.005046134621807141,0.010357838395975705,1942.5492797559332,None,0.006099109895330912,0.012472128069020982,2.0,1.0,1,0,0,1.958055469312967,click_2,0.006099109895330912,None,1943.0511047420127,None,1943.0511047420127,None,1943.0511047420127,None,0.005338004100849503,0.010984555935465323,,,01_control,001,control,53,m,11,1,sofia,2023_Mar_27_1526,CPO_EEG,2020.1.3,143.7411597647192,
stimoli/02.subtle/JM2_Sadness.mp4,sad,subtle,maschio,8,10,1646,926,20,,,,,,,,,,,,,,,,,1,0,1,0,,,,,,,,,0,12,12,19,,,0.0021239117440927657,0.005545520091800427,1946.5971514821836,None,0.006195972074237943,0.012610685887921136,-98.0,-17.0,1,0,0,6.230753613408524,click_1,0.006195972074237943,None,1957.2211706724415,None,1957.2211706724415,None,0.005380341212912754,0.011022082012459578,1963.452192420887,None,0.0060959025386182475,0.012472448805056047,-81.0,-54.0,1,0,0,3.150137659758002,click_2,0.0060959025386182475,None,1963.953986937077,None,1963.953986937077,None,1963.953986937077,None,0.005343135871953564,0.010965953265440476,,,01_control,001,control,53,m,11,1,sofia,2023_Mar_27_1526,CPO_EEG,2020.1.3,143.7411597647192,
stimoli/01.full/M02-Anger-Face Forward.mp4,angry,full,maschio,3,6,720,576,35,,,,,,,,,,,,,,,,,1,0,1,0,,,,,,,,,0,13,13,34,,,0.005312024510203628,0.009349445384941646,1968.6896702580511,None,0.006185067059959692,0.012637948420888279,-97.0,16.0,1,0,0,6.035274831998322,click_1,0.006185067059959692,None,1974.7157691626749,None,1974.7157691626749,None,0.005389642546106188,0.010998989040672313,1980.75125118993,None,0.006125410222011851,0.012480787932872772,0.0,0.0,1,0,0,1.121794567507095,click_2,0.006125410222011851,None,1981.253064629525,None,1981.253064629525,None,1981.253064629525,None,0.005292138896948018,0.010841187081496173,,,01_control,001,control,53,m,11,1,sofia,2023_Mar_27_1526,CPO_EEG,2020.1.3,143.7411597647192,
stimoli/01.full/M02-Disgust-Face Forward.mp4,disgusted,full,maschio,3,6,720,576,39,,,,,,,,,,,,,,,,,1,0,1,0,,,,,,,,,0,14,14,38,,,0.0013082808827675763,0.004966912906638754,1983.9637976003837,None,0.0061369567056317464,0.012492975888562796,-116.0,75.0,1,0,0,4.773670935444898,click_1,0.0061369567056317464,None,1989.9852067077377,None,1989.9852067077377,None,0.005420433172730554,0.011076927814428927,1994.759175927375,None,0.006126693164333119,0.012479825725677074,3.0,-2.0,1,0,0,1.3099063708368703,click_2,0.006126693164333119,None,1995.260962104437,None,1995.260962104437,None,1995.260962104437,None,0.005329985708158347,0.010914314819274296,,,01_control,001,control,53,m,11,1,sofia,2023_Mar_27_1526,CPO_EEG,2020.1.3,143.7411597647192,
stimoli/02.subtle/JM1_Anger.mp4,angry,subtle,maschio,7,10,1646,926,7,,,,,,,,,,,,,,,,,1,0,1,0,,,,,,,,,0,15,15,6,,,0.003472926059657766,0.006891327050652762,1998.157500147538,None,0.006195651338202879,0.012614534715794434,-87.0,-58.0,1,0,0,3.7563489629974356,click_1,0.006195651338202879,None,2008.5785260398893,None,2008.5785260398893,None,0.005440639521111734,0.011103548876235436,2012.3351319121753,None,0.006107449022238143,0.012486881910263037,0.0,0.0,1,0,0,1.0311889800341305,click_2,0.006107449022238143,None,2012.8370034049299,None,2012.8370034049299,None,2012.8370034049299,None,0.005340249250366469,0.010924257625447353,,,01_control,001,control,53,m,11,1,sofia,2023_Mar_27_1526,CPO_EEG,2020.1.3,143.7411597647192,
stimoli/01.full/M03-Disgust-Face Forward.mp4,disgusted,full,maschio,4,6,720,576,40,,,,,,,,,,,,,,,,,1,0,1,0,,,,,,,,,0,16,16,39,,,0.0008531569383194437,0.004878389856457943,2015.4514643508696,None,0.006231894470147381,0.01272294337832136,-87.0,59.0,1,0,0,7.8890123008559385,click_1,0.006231894470147381,None,2021.4760096118075,None,2021.4760096118075,None,0.005499013416738308,0.011217410046810983,2029.3652993490346,None,0.00600000256599742,0.012242160578352923,3.0,2.0,1,0,0,2.2227637666173905,click_2,0.00600000256599742,None,2029.8671368438067,None,2029.8671368438067,None,2029.8671368438067,None,0.0053197221668597194,0.010890580378145387,,,01_control,001,control,53,m,11,1,sofia,2023_Mar_27_1526,CPO_EEG,2020.1.3,143.7411597647192,
stimoli/01.full/M03-Neutral-Face Forward.mp4,neutral,full,maschio,4,6,720,576,56,,,,,,,,,,,,,,,,,1,0,1,0,,,,,,,,,0,17,17,55,,,0.004144867331888236,0.007737107067441684,2033.6828424366672,None,0.006207197822732269,0.01266841831147758,0.0,0.0,1,0,0,0.8848979034146396,click_1,0.006207197822732269,None,2039.7071535605514,None,2039.7071535605514,None,0.005411773309788259,0.011056400730012683,2040.5922166428468,None,0.006173841310555872,0.01259400763137819,0.0,0.0,1,0,0,0.6546937102439188,click_2,0.006173841310555872,None,2041.0939874245955,None,2041.0939874245955,None,2041.0939874245955,None,0.005485542517817521,0.01122157960980985,,,01_control,001,control,53,m,11,1,sofia,2023_Mar_27_1526,CPO_EEG,2020.1.3,143.7411597647192,
stimoli/02.subtle/JM1_Fear.mp4,fear,subtle,maschio,7,10,1646,926,3,,,,,,,,,,,,,,,,,1,0,1,0,,,,,,,,,0,18,18,2,,,0.004062758995132754,0.007520289740568842,2043.3348131008984,None,0.006185387794175767,0.012628647084056865,18.0,-93.0,1,0,0,5.6381658793670795,click_1,0.006185387794175767,None,2053.756155559376,None,2053.756155559376,None,0.005397660937887849,0.01106666427131131,2059.3945581416833,None,0.006078582810914668,0.012385850168357138,-1.0,1.0,1,0,0,1.853729771200051,click_2,0.006078582810914668,None,2059.8963722227495,None,2059.8963722227495,None,2059.8963722227495,None,0.0050345881363682565,0.0103693848795956,,,01_control,001,control,53,m,11,1,sofia,2023_Mar_27_1526,CPO_EEG,2020.1.3,143.7411597647192,
stimoli/02.subtle/JF1_Disgust.mp4,disgusted,subtle,femmina,5,10,1646,926,9,,,,,,,,,,,,,,,,,1,0,1,0,,,,,,,,,0,19,19,8,,,0.0008053673200265621,0.004881276477135543,2063.3401575197126,None,0.006179293815876008,0.012582781881064875,-91.0,-19.0,1,0,0,7.282717285600484,click_1,0.006179293815876008,None,2074.164171449905,None,2074.164171449905,None,0.005346022492631164,0.010932596753264079,2081.4471004210623,None,0.00611771256353677,0.012496183244365966,0.0,0.0,1,0,0,0.8707239517716516,click_2,0.00611771256353677,None,2081.9489334255345,None,2081.9489334255345,None,2081.9489334255345,None,0.005467902054988372,0.011172827785230766,,,01_control,001,control,53,m,11,1,sofia,2023_Mar_27_1526,CPO_EEG,2020.1.3,143.7411597647192,
stimoli/02.subtle/JM1_Neutral.mp4,neutral,subtle,maschio,7,10,1646,926,27,,,,,,,,,,,,,,,,,1,0,1,0,,,,,,,,,0,20,20,26,,,0.0030145947575874743,0.006403167330063297,2084.4068583554213,None,0.006214895478478866,0.012673870817707211,-94.0,21.0,1,0,0,3.087194563401681,click_1,0.006214895478478866,None,2094.828450987738,None,2094.828450987738,None,0.00536558736803272,0.010993857268658758,2097.9158617269945,None,0.006121561392319563,0.012502918694735854,0.0,0.0,1,0,0,0.5432701312956851,click_2,0.006121561392319563,None,2098.417668751876,None,2098.417668751876,None,2098.417668751876,None,0.005331268650479615,0.010897957298766414,,,01_control,001,control,53,m,11,1,sofia,2023_Mar_27_1526,CPO_EEG,2020.1.3,143.7411597647192,
stimoli/01.full/F01-Fear-Face Forward.mp4,fear,full,femmina,1,6,720,576,29,,,,,,,,,,,,,,,,,1,0,1,0,,,,,,,,,0,21,21,28,,,0.004353666266069922,0.007921530089333828,2100.546803676401,None,0.006174162044771947,0.012590800272846536,19.0,-91.0,1,0,0,6.537283278893483,click_1,0.006174162044771947,None,2106.5732476926273,None,2106.5732476926273,None,0.005399264618063171,0.011076607079303358,2113.110800389501,None,0.0060253406863921555,0.012293799025428598,0.0,0.0,1,0,0,0.6546844089098158,click_2,0.0060253406863921555,None,2113.612599716726,None,2113.612599716726,None,2113.612599716726,None,0.005469505732435209,0.011174110727552033,,,01_control,001,control,53,m,11,1,sofia,2023_Mar_27_1526,CPO_EEG,2020.1.3,143.7411597647192,
stimoli/02.subtle/JM2_Surprise.mp4,surprised,subtle,maschio,8,10,1646,926,24,,,,,,,,,,,,,,,,,1,0,1,0,,,,,,,,,0,22,22,23,,,0.0003521677881508367,0.004172771336016012,2115.857815623164,None,0.00616646438902535,0.012609723679815943,20.0,-96.0,1,0,0,2.0348306130672427,click_1,0.00616646438902535,None,2126.8389127444966,None,2126.8389127444966,None,0.00542299905919208,0.011106114762696961,2128.8740002668524,None,0.006114505206824106,0.01247629763201985,-3.0,3.0,1,0,0,1.783921006647688,click_2,0.006114505206824106,None,2129.3758143479185,None,2129.3758143479185,None,2129.3758143479185,None,0.0053187599587545265,0.01085497871554253,,,01_control,001,control,53,m,11,1,sofia,2023_Mar_27_1526,CPO_EEG,2020.1.3,143.7411597647192,
stimoli/02.subtle/JF1_Surprise.mp4,surprised,subtle,femmina,5,10,1646,926,21,,,,,,,,,,,,,,,,,1,0,1,0,,,,,,,,,0,23,23,20,,,0.005500296360878565,0.009243923342182825,2132.751510023632,None,0.006149144662231265,0.012535312999716552,29.0,-134.0,1,0,0,6.244189552227908,click_1,0.006149144662231265,None,2143.5728272081374,None,2143.5728272081374,None,0.005404075653132168,0.011073078986555629,2149.817324987363,None,0.00612605169226299,0.012509333408161183,0.0,6.0,1,0,0,1.3447696989451288,click_2,0.00612605169226299,None,2150.319045092872,None,2150.319045092872,None,2150.319045092872,None,0.005363342220334744,0.010997385363225476,,,01_control,001,control,53,m,11,1,sofia,2023_Mar_27_1526,CPO_EEG,2020.1.3,143.7411597647192,
stimoli/02.subtle/JF2_Fear.mp4,fear,subtle,femmina,6,10,1646,926,2,,,,,,,,,,,,,,,,,1,0,1,0,,,,,,,,,0,24,24,1,,,0.00635569844780548,0.009967823796614539,2153.254530391631,None,0.006204952672305808,0.012661362125982123,22.0,-90.0,1,0,0,8.774761116057562,click_1,0.006204952672305808,None,2163.6783479674336,None,2163.6783479674336,None,0.005409207422417239,0.011059287349780789,2172.4533095432985,None,0.006040735998794844,0.012331645835729432,2.0,3.0,1,0,0,0.8917302150985051,click_2,0.006040735998794844,None,2172.9551608297047,None,2172.9551608297047,None,2172.9551608297047,None,0.005374888705773628,0.011020799069228815,,,01_control,001,control,53,m,11,1,sofia,2023_Mar_27_1526,CPO_EEG,2020.1.3,143.7411597647192,
stimoli/01.full/F03-Fear-Face Forward.mp4,fear,full,femmina,2,6,720,576,30,,,,,,,,,,,,,,,,,1,0,1,0,,,,,,,,,0,25,25,29,,,0.005206823203479871,0.009282732360588852,2175.439442214975,None,0.00616069114585116,0.012574763489283214,-54.0,-82.0,1,0,0,6.495015446630532,click_1,0.00616069114585116,None,2181.4632173895193,None,2181.4632173895193,None,0.005436469958112866,0.011126000375043077,2187.9585237434217,None,0.006097826952100149,0.012442620385627379,1.0,4.0,1,0,0,0.6408257404500546,click_2,0.006097826952100149,None,2188.460274318822,None,2188.460274318822,None,2188.460274318822,None,0.005380982683163893,0.010999951248777506,,,01_control,001,control,53,m,11,1,sofia,2023_Mar_27_1526,CPO_EEG,2020.1.3,143.7411597647192,
stimoli/01.full/M02-Neutral-Face Forward.mp4,neutral,full,maschio,3,6,720,576,55,,,,,,,,,,,,,,,,,1,0,1,0,,,,,,,,,0,26,26,54,,,0.006084997523430502,0.00975742118225753,2190.685482412138,None,0.006185387794175767,0.012638269155104354,91.0,-20.0,1,0,0,6.592627505267046,click_1,0.006185387794175767,None,2196.710722065846,None,2196.710722065846,None,0.005413697722360666,0.01110451108252164,2203.3036189890922,None,0.006033679814208881,0.01231785420259257,-2.0,1.0,1,0,0,0.6825698113307226,click_2,0.006033679814208881,None,2203.8053705267,None,2203.8053705267,None,2203.8053705267,None,0.005374567969738564,0.011049986017496849,,,01_control,001,control,53,m,11,1,sofia,2023_Mar_27_1526,CPO_EEG,2020.1.3,143.7411597647192,
stimoli/01.full/M02-Sadness-Face Forward.mp4,sad,full,maschio,3,6,720,576,47,,,,,,,,,,,,,,,,,1,0,1,0,,,,,,,,,0,27,27,46,,,0.0021004980380894267,0.005657136111949512,2206.0694286927587,None,0.006184425586980069,0.012611968828423414,-85.0,55.0,1,0,0,7.429502295184648,click_1,0.006184425586980069,None,2211.734342966523,None,2211.734342966523,None,0.005375850911150337,0.010972688713991374,2219.1640585509417,None,0.006088525616178231,0.012455770548513101,0.0,0.0,1,0,0,0.5085476061567533,click_2,0.006088525616178231,None,2219.6658893102644,None,2219.6658893102644,None,2219.6658893102644,None,0.005326778351445682,0.010921371003860258,,,01_control,001,control,53,m,11,1,sofia,2023_Mar_27_1526,CPO_EEG,2020.1.3,143.7411597647192,
stimoli/01.full/M02-Fear-Face Forward.mp4,fear,full,maschio,3,6,720,576,31,,,,,,,,,,,,,,,,,1,0,1,0,,,,,,,,,0,28,28,30,,,0.006392262314875552,0.010408514634036692,2221.758824080323,None,0.0061895573599031195,0.012611006623046705,-68.0,-76.0,1,0,0,12.885912390404883,click_1,0.0061895573599031195,None,2227.784110240706,None,2227.784110240706,None,0.00542845156542171,0.011090077978224144,2240.670272163478,None,0.006087242672947468,0.012379756189147884,2.0,2.0,1,0,0,1.588613177361367,click_2,0.006087242672947468,None,2241.172048397733,None,2241.172048397733,None,2241.172048397733,None,0.0053594933915519505,0.010969160621243645,,,01_control,001,control,53,m,11,1,sofia,2023_Mar_27_1526,CPO_EEG,2020.1.3,143.7411597647192,
stimoli/01.full/M02-Surprise-Face Forward.mp4,surprised,full,maschio,3,6,720,576,51,,,,,,,,,,,,,,,,,1,0,1,0,,,,,,,,,0,29,29,50,,,0.0031056836942298105,0.00673192141312029,2244.3479106635637,None,0.006156842317977862,0.012538841091554787,18.0,-92.0,1,0,0,2.8361922643680373,click_1,0.006156842317977862,None,2250.375030469891,None,2250.375030469891,None,0.005411131836808636,0.011049344543607731,2253.2115107549093,None,0.006092695180086594,0.012432356842509762,0.0,1.0,1,0,0,0.6129024912179375,click_2,0.006092695180086594,None,2253.713313289491,None,2253.713313289491,None,2253.713313289491,None,0.0053832278317713644,0.010997385362315981,,,01_control,001,control,53,m,11,1,sofia,2023_Mar_27_1526,CPO_EEG,2020.1.3,143.7411597647192,
stimoli/02.subtle/JM1_Sadness.mp4,sad,subtle,maschio,7,10,1646,926,19,,,,,,,,,,,,,,,,,1,0,1,0,,,,,,,,,0,30,30,18,,,0.0045592578426294494,0.008096651775304053,2255.925440819133,None,0.006167747331346618,0.012577970845995878,69.0,-10.0,1,0,0,11.911161024711873,click_1,0.006167747331346618,None,2266.350853734262,None,2266.350853734262,None,0.005356927505090425,0.01096082149342692,2278.2622325385078,None,0.006054527633750695,0.012393547824103734,0.0,0.0,1,0,0,0.8081981325485685,click_2,0.006054527633750695,None,2278.7641319352683,None,2278.7641319352683,None,2278.7641319352683,None,0.0053129867164898315,0.01085722386596899,,,01_control,001,control,53,m,11,1,sofia,2023_Mar_27_1526,CPO_EEG,2020.1.3,143.7411597647192,
stimoli/02.subtle/JM2_Neutral.mp4,neutral,subtle,maschio,8,10,1646,926,28,,,,,,,,,,,,,,,,,1,0,1,0,,,,,,,,,0,31,31,27,,,0.0038805811218480812,0.007620038540153473,2281.159026528691,None,0.006178652344715374,0.012633778856070421,0.0,0.0,1,0,0,0.7663931218876314,click_1,0.006178652344715374,None,2292.140995088895,None,2292.140995088895,None,0.005395736524405947,0.01106121176508168,2292.9076136879726,None,0.006133749348919082,0.01254268992033758,0.0,0.0,1,0,0,0.49452504176042567,click_2,0.006133749348919082,None,2293.4093764513286,None,2293.4093764513286,None,2293.4093764513286,None,0.005350512791665096,0.010938369995528774,,,01_control,001,control,53,m,11,1,sofia,2023_Mar_27_1526,CPO_EEG,2020.1.3,143.7411597647192,
stimoli/01.full/F03-Neutral-Face Forward.mp4,neutral,full,femmina,2,6,720,576,54,,,,,,,,,,,,,,,,,1,0,1,0,,,,,,,,,0,32,32,53,,,0.0014558193006450892,0.004998986475584388,2295.492656756361,None,0.00621521621451393,0.012676115968133672,0.0,0.0,1,0,0,2.5504485167894018,click_1,0.00621521621451393,None,2301.5173845159075,None,2301.5173845159075,None,0.005413376987235097,0.011100020783487707,2304.0680533781165,None,0.006174482782626001,0.012609082208655309,0.0,0.0,1,0,0,0.2923720713624789,click_2,0.006174482782626001,None,2304.5698892692103,None,2304.5698892692103,None,2304.5698892692103,None,0.005376492383220466,0.011001875663168903,,,01_control,001,control,53,m,11,1,sofia,2023_Mar_27_1526,CPO_EEG,2020.1.3,143.7411597647192,
stimoli/01.full/F01-Surprise-Face Forward.mp4,surprised,full,femmina,1,6,720,576,49,,,,,,,,,,,,,,,,,1,0,1,0,,,,,,,,,0,33,33,48,,,0.00609205370892596,0.00971155597926554,2306.4463851804717,None,0.006187632944602228,0.01259946013760782,23.0,-93.0,1,0,0,5.024813395974888,click_1,0.006187632944602228,None,2312.471478578705,None,2312.471478578705,None,0.00552371006415342,0.011319403995003086,2317.4966643488165,None,0.006091732974709885,0.01245897790613526,1.0,-1.0,1,0,0,1.1427167980828017,click_2,0.006091732974709885,None,2317.998540973343,None,2317.998540973343,None,2317.998540973343,None,0.005359493390642456,0.010988404762429127,,,01_control,001,control,53,m,11,1,sofia,2023_Mar_27_1526,CPO_EEG,2020.1.3,143.7411597647192,
stimoli/01.full/F01-Anger-Face Forward.mp4,angry,full,femmina,1,6,720,576,33,,,,,,,,,,,,,,,,,1,0,1,0,,,,,,,,,0,34,34,32,,,0.001688994148025813,0.0057527153485352756,2320.7237208419187,None,0.006110977114076377,0.012468920710489328,-24.0,138.0,1,0,0,2.3343374498690537,click_1,0.006110977114076377,None,2326.7478170728896,None,2326.7478170728896,None,0.005392849904637842,0.011006686699147394,2329.0824967477397,None,0.0060295102493910235,0.012285139160667313,0.0,0.0,1,0,0,0.7033868405997055,click_2,0.0060295102493910235,None,2329.5843012067357,None,2329.5843012067357,None,2329.5843012067357,None,0.005426847886155883,0.011084946206210589,,,01_control,001,control,53,m,11,1,sofia,2023_Mar_27_1526,CPO_EEG,2020.1.3,143.7411597647192,
stimoli/01.full/M03-Fear-Face Forward.mp4,fear,full,maschio,4,6,720,576,32,,,,,,,,,,,,,,,,,1,0,1,0,,,,,,,,,0,35,35,31,,,0.0008214041035898845,0.004558295635433751,2331.870686425696,None,0.006202066050718713,0.012661362125982123,25.0,-133.0,1,0,0,7.017802434512305,click_1,0.006202066050718713,None,2337.8918197003563,None,2337.8918197003563,None,0.005423961265478283,0.011066022800150677,2344.909821311732,None,0.0060949403305130545,0.01244486553423485,0.0,1.0,1,0,0,0.6477667815333916,click_2,0.0060949403305130545,None,2345.411626091464,None,2345.411626091464,None,2345.411626091464,None,0.005380982682254398,0.01103266628797428,,,01_control,001,control,53,m,11,1,sofia,2023_Mar_27_1526,CPO_EEG,2020.1.3,143.7411597647192,
stimoli/02.subtle/JF2_Anger.mp4,angry,subtle,femmina,6,9,1646,926,6,,,,,,,,,,,,,,,,,1,0,1,0,,,,,,,,,0,36,36,5,,,0.0006514141878142254,0.004222485367790796,2347.648979162444,None,0.006179293815876008,0.012580215995512845,22.0,-98.0,1,0,0,7.736293680993185,click_1,0.006179293815876008,None,2357.155308239828,None,2357.155308239828,None,0.005346663963791798,0.010936445581137377,2364.8918469628893,None,0.006100713573687244,0.012444544800018775,-1.0,6.0,1,0,0,1.7630199446275583,click_2,0.006100713573687244,None,2365.39372775698,None,2365.39372775698,None,2365.39372775698,None,0.005346022492631164,0.010934200431620411,,,01_control,001,control,53,m,11,1,sofia,2023_Mar_27_1526,CPO_EEG,2020.1.3,143.7411597647192,
stimoli/02.subtle/JM1_Happiness.mp4,happy,subtle,maschio,7,10,1646,926,15,,,,,,,,,,,,,,,,,1,0,1,0,,,,,,,,,0,37,37,14,,,0.001925376350300212,0.005685040116986784,2368.7455132284226,None,0.006184425586980069,0.012590800272846536,85.0,-59.0,1,0,0,5.038525488223968,click_1,0.006184425586980069,None,2379.167871136097,None,2379.167871136097,None,0.005436790692328941,0.011141074951410701,2384.206710945298,None,0.006098147686316224,0.01245384613321221,0.0,1.0,1,0,0,1.0171433226678346,click_2,0.006098147686316224,None,2384.708516687236,None,2384.708516687236,None,2384.708516687236,None,0.0053489091151277535,0.010937087054117,,,01_control,001,control,53,m,11,1,sofia,2023_Mar_27_1526,CPO_EEG,2020.1.3,143.7411597647192,
stimoli/01.full/F01-Disgust-Face Forward.mp4,disgusted,full,femmina,1,6,720,576,37,,,,,,,,,,,,,,,,,1,0,1,0,,,,,,,,,0,38,38,36,,,0.00651093452142959,0.010163151831875439,2387.3094627933774,None,0.006171596160129411,0.012584385559421207,-81.0,53.0,1,0,0,2.9338213219953104,click_1,0.006171596160129411,None,2393.33445868796,None,2393.33445868796,None,0.0054056793314885,0.011051589694943686,2396.268515750688,None,0.006055169104911329,0.012347682621111744,0.0,0.0,1,0,0,1.1006192764716616,click_2,0.006055169104911329,None,2396.77031604012,None,2396.77031604012,None,2396.77031604012,None,0.005426206414995249,0.011084625470175524,,,01_control,001,control,53,m,11,1,sofia,2023_Mar_27_1526,CPO_EEG,2020.1.3,143.7411597647192,
stimoli/02.subtle/JF1_Happiness.mp4,happy,subtle,femmina,5,10,1646,926,13,,,,,,,,,,,,,,,,,1,0,1,0,,,,,,,,,0,39,39,12,,,0.0009490569091212819,0.004537768551927002,2399.4604372525523,None,0.006184104851854499,0.012611648093297845,139.0,28.0,1,0,0,5.721786805703232,click_1,0.006184104851854499,None,2410.2836958501935,None,2410.2836958501935,None,0.005406962271990778,0.011058004406550026,2416.0057325089997,None,0.00610295872320421,0.012487523382333166,1.0,1.0,1,0,0,1.4005616723416097,click_2,0.00610295872320421,None,2416.5076142652974,None,2416.5076142652974,None,2416.5076142652974,None,0.0053761716471854015,0.011015988032340829,,,01_control,001,control,53,m,11,1,sofia,2023_Mar_27_1526,CPO_EEG,2020.1.3,143.7411597647192,
stimoli/01.full/F01-Joy-Face Forward.mp4,happy,full,femmina,1,6,720,576,41,,,,,,,,,,,,,,,,,1,0,1,0,,,,,,,,,0,40,40,40,,,0.004691400948104274,0.008768272312408953,2419.5011697230643,None,0.006152672754978994,0.012560971855236858,84.0,-54.0,1,0,0,2.8362185646947182,click_1,0.006152672754978994,None,2425.5282186468035,None,2425.5282186468035,None,0.00542845156542171,0.011119585660708253,2428.3647152893423,None,0.006059017932784627,0.012391944145747402,1.0,1.0,1,0,0,4.515619186666299,click_2,0.006059017932784627,None,2428.866491202861,None,2428.866491202861,None,2428.866491202861,None,0.005434224805867416,0.011089436504335026,,,01_control,001,control,53,m,11,1,sofia,2023_Mar_27_1526,CPO_EEG,2020.1.3,143.7411597647192,
stimoli/02.subtle/JM2_Happiness.mp4,happy,subtle,maschio,8,10,1646,926,16,,,,,,,,,,,,,,,,,1,0,1,0,,,,,,,,,0,41,41,15,,,0.0009169833401756478,0.004331535503297346,2434.971339700151,None,0.006188274417581852,0.01260523338078201,98.0,-21.0,1,0,0,2.2996097929581083,click_1,0.006188274417581852,None,2445.5959615527713,None,2445.5959615527713,None,0.005402792709901405,0.0110695508938079,2447.8958170292694,None,0.006098789157476858,0.01247373174646782,0.0,1.0,1,0,0,0.6477975721591065,click_2,0.006098789157476858,None,2448.3976307895996,None,2448.3976307895996,None,2448.3976307895996,None,0.005370398405830201,0.01100925258378993,,,01_control,001,control,53,m,11,1,sofia,2023_Mar_27_1526,CPO_EEG,2020.1.3,143.7411597647192,
stimoli/02.subtle/JM1_Surprise.mp4,surprised,subtle,maschio,7,10,1646,926,23,,,,,,,,,,,,,,,,,1,0,1,0,,,,,,,,,0,42,42,22,,,0.004201958283374552,0.007599511454827734,2450.631252421554,None,0.006181859702337533,0.012604591908711882,21.0,-93.0,1,0,0,9.41607469549308,click_1,0.006181859702337533,None,2461.058804323004,None,2461.058804323004,None,0.005386114453358459,0.011013742881914368,2470.4751125140806,None,0.006074092510971241,0.012400604009599192,1.0,2.0,1,0,0,1.3587749436146623,click_2,0.006074092510971241,None,2470.976945197817,None,2470.976945197817,None,2470.976945197817,None,0.00536270074917411,0.010965953265440476,,,01_control,001,control,53,m,11,1,sofia,2023_Mar_27_1526,CPO_EEG,2020.1.3,143.7411597647192,
stimoli/02.subtle/JF1_Anger.mp4,angry,subtle,femmina,5,10,1646,926,5,,,,,,,,,,,,,,,,,1,0,1,0,,,,,,,,,0,43,43,4,,,0.004897633997643425,0.009199661816637672,2473.9287880168017,None,0.0062017453155931435,0.012656871826038696,-21.0,97.0,1,0,0,2.236956320931313,click_1,0.0062017453155931435,None,2484.7543757970284,None,2484.7543757970284,None,0.005411452573753195,0.011087191355727555,2486.991555029264,None,0.006133428612884018,0.012493296623688366,0.0,0.0,1,0,0,0.9266544829870327,click_2,0.006133428612884018,None,2487.4932651919667,None,2487.4932651919667,None,2487.4932651919667,None,0.005314911129971733,0.01086652520007192,,,01_control,001,control,53,m,11,1,sofia,2023_Mar_27_1526,CPO_EEG,2020.1.3,143.7411597647192,
stimoli/02.subtle/JM2_Disgust.mp4,disgusted,subtle,maschio,8,10,1646,926,12,,,,,,,,,,,,,,,,,1,0,1,0,,,,,,,,,0,44,44,11,,,0.003693592214403907,0.00712514336919412,2490.006186991474,None,0.006185708530210832,0.012640835041565879,-78.0,-56.0,1,0,0,3.81897068219223,click_1,0.006185708530210832,None,2500.629359760244,None,2500.629359760244,None,0.005283799768221797,0.010824829560988292,2504.448573880825,None,0.005987173138237267,0.01222933115059277,1.0,1.0,1,0,0,0.49432682710357767,click_2,0.005987173138237267,None,2504.950351718758,None,2504.950351718758,None,2504.950351718758,None,0.005384190040786052,0.011032666288883775,,,01_control,001,control,53,m,11,1,sofia,2023_Mar_27_1526,CPO_EEG,2020.1.3,143.7411597647192,
stimoli/01.full/F01-Sadness-Face Forward.mp4,sad,full,femmina,1,6,720,576,45,,,,,,,,,,,,,,,,,1,0,1,0,,,,,,,,,0,45,45,44,,,0.005193993774810224,0.00878206394645531,2507.0299082824217,None,0.006162615561152052,0.012568348775857885,-98.0,-20.0,1,0,0,7.171561520954128,click_1,0.006162615561152052,None,2513.0523812700617,None,2513.0523812700617,None,0.005397340203671774,0.011072758250520565,2520.2242465277154,None,0.006089167087338865,0.012456091282729176,3.0,1.0,1,0,0,0.6896494102311408,click_2,0.006089167087338865,None,2520.7260612502537,None,2520.7260612502537,None,2520.7260612502537,None,0.005380982682254398,0.011034911437491246,,,01_control,001,control,53,m,11,1,sofia,2023_Mar_27_1526,CPO_EEG,2020.1.3,143.7411597647192,
stimoli/01.full/F03-Surprise-Face Forward.mp4,surprised,full,femmina,2,6,720,576,50,,,,,,,,,,,,,,,,,1,0,1,0,,,,,,,,,0,46,46,49,,,0.006543649562445353,0.010632708882440056,2523.0001581226957,None,0.006169671747557004,0.012583744090079563,21.0,-102.0,1,0,0,5.498444111163735,click_1,0.006169671747557004,None,2529.0257582833196,None,2529.0257582833196,None,0.005432621127511084,0.011085908412496792,2534.524450323173,None,0.006081148694647709,0.012419527413840115,-3.0,6.0,1,0,0,1.093808454079408,click_2,0.006081148694647709,None,2535.0262204634505,None,2535.0262204634505,None,2535.0262204634505,None,0.005355003091608523,0.010949916480058164,,,01_control,001,control,53,m,11,1,sofia,2023_Mar_27_1526,CPO_EEG,2020.1.3,143.7411597647192,
stimoli/02.subtle/JF2_Happiness.mp4,happy,subtle,femmina,6,9,1646,926,14,,,,,,,,,,,,,,,,,1,0,1,0,,,,,,,,,0,47,47,13,,,0.00586208622007689,0.00946747611851606,2537.7111916228973,None,0.006210725913661008,0.012644042398278543,122.0,-81.0,1,0,0,5.951540365228539,click_1,0.006210725913661008,None,2547.215107164209,None,2547.215107164209,None,0.005416584343947761,0.011073399720771704,2553.166872365156,None,0.006105845342972316,0.01245897790431627,1.0,5.0,1,0,0,0.7802460171042185,click_2,0.006105845342972316,None,2553.668676182681,None,2553.668676182681,None,2553.668676182681,None,0.0053405699854920385,0.010899560977122746,,,01_control,001,control,53,m,11,1,sofia,2023_Mar_27_1526,CPO_EEG,2020.1.3,143.7411597647192,
stimoli/02.subtle/JF2_Neutral.mp4,neutral,subtle,femmina,6,9,1646,926,26,,,,,,,,,,,,,,,,,1,0,1,0,,,,,,,,,0,48,48,25,,,0.004580747135150887,0.008111084882330033,2556.0412883054637,None,0.006185067059959692,0.012611648095116834,0.0,0.0,1,0,0,0.9615813167611122,click_1,0.006185067059959692,None,2565.546026213087,None,2565.546026213087,None,0.005414980666500924,0.011074682664002466,2566.5078458364655,None,0.006117391827501706,0.012482391609410115,0.0,0.0,1,0,0,1.0241376058747846,click_2,0.006117391827501706,None,2567.009628806171,None,2567.009628806171,None,2567.009628806171,None,0.005396377995566581,0.011016308768375893,,,01_control,001,control,53,m,11,1,sofia,2023_Mar_27_1526,CPO_EEG,2020.1.3,143.7411597647192,
stimoli/01.full/M02-Joy-Face Forward.mp4,happy,full,maschio,3,6,720,576,43,,,,,,,,,,,,,,,,,1,0,1,0,,,,,,,,,0,49,49,42,,,0.0054371114292735,0.00947036273919366,2569.6191472151163,None,0.006199179430041113,0.01264596681266994,106.0,15.0,1,0,0,2.6967751950714955,click_1,0.006199179430041113,None,2575.6452044241,None,2575.6452044241,None,0.005414980666500924,0.011052551902139385,2578.3421884181057,None,0.0061007135727777495,0.012446148477465613,0.0,0.0,1,0,0,0.8151571348298603,click_2,0.0061007135727777495,None,2578.844040025248,None,2578.844040025248,None,2578.844040025248,None,0.005267121512588346,0.01077158743646578,,,01_control,001,control,53,m,11,1,sofia,2023_Mar_27_1526,CPO_EEG,2020.1.3,143.7411597647192,
stimoli/02.subtle/JF2_Sadness.mp4,sad,subtle,femmina,6,8,1646,926,18,,,,,,,,,,,,,,,,,1,0,1,0,,,,,,,,,0,50,50,17,,,0.006213933271283167,0.009792381371880765,2581.249984283951,None,0.006201103843523015,0.012642117984796641,-92.0,21.0,1,0,0,8.105030675161288,click_1,0.006201103843523015,None,2589.631548460597,None,2589.631548460597,None,0.005393170638853917,0.011053193372390524,2597.7368164801696,None,0.006103600192545855,0.012486561173318478,0.0,0.0,1,0,0,0.48060415057625505,click_2,0.006103600192545855,None,2598.2385962425174,None,2598.2385962425174,None,2598.2385962425174,None,0.005362700748264615,0.011033307759134914,,,01_control,001,control,53,m,11,1,sofia,2023_Mar_27_1526,CPO_EEG,2020.1.3,143.7411597647192,
stimoli/02.subtle/JF1_Fear.mp4,fear,subtle,femmina,5,10,1646,926,1,,,,,,,,,,,,,,,,,1,0,1,0,,,,,,,,,0,51,51,0,,,0.0021954358044240507,0.005673814369401953,2600.3071647221527,None,0.0061821804383725976,0.012584385560330702,-83.0,-55.0,1,0,0,2.0627144118088836,click_1,0.0061821804383725976,None,2611.129673439749,None,2611.129673439749,None,0.005447054235446558,0.011112208740087226,2613.1926418742255,None,0.006095902537708753,0.012466675561881857,2.0,5.0,1,0,0,0.8012532426382677,click_2,0.006095902537708753,None,2613.6944081656743,None,2613.6944081656743,None,2613.6944081656743,None,0.005368153254494246,0.01097782048418594,,,01_control,001,control,53,m,11,1,sofia,2023_Mar_27_1526,CPO_EEG,2020.1.3,143.7411597647192,
stimoli/02.subtle/JF2_Surprise.mp4,surprised,subtle,femmina,6,10,1646,926,22,,,,,,,,,,,,,,,,,1,0,1,0,,,,,,,,,0,52,52,21,,,0.0042805385282918,0.008297432318613573,2616.0822241224027,None,0.006196934278705157,0.01261998722111457,19.0,-94.0,1,0,0,14.623872614047286,click_1,0.006196934278705157,None,2626.505414980666,None,2626.505414980666,None,0.005404396388257737,0.011044212773413165,2641.129525901332,None,0.006033038342138752,0.012320420086325612,0.0,5.0,1,0,0,0.6187873496710381,click_2,0.006033038342138752,None,2641.630441922464,None,2641.630441922464,None,2641.630441922464,None,0.005333193065780506,0.01089699509248021,,,01_control,001,control,53,m,11,1,sofia,2023_Mar_27_1526,CPO_EEG,2020.1.3,143.7411597647192,
stimoli/02.subtle/JF1_Neutral.mp4,neutral,subtle,femmina,5,10,1646,926,25,,,,,,,,,,,,,,,,,1,0,1,0,,,,,,,,,0,53,53,24,,,0.0019491107923386153,0.005429413771707914,2643.8349096423412,None,0.006133749348919082,0.012508691937000549,0.0,0.0,1,0,0,1.0381614532152525,click_1,0.006133749348919082,None,2654.6581326383207,None,2654.6581326383207,None,0.005376492383220466,0.010973971657222137,2655.6965266249113,None,0.006116108885180438,0.012478863517571881,0.0,0.0,1,0,0,0.2505308175677783,click_2,0.006116108885180438,None,2656.1983144056508,None,2656.1983144056508,None,2656.1983144056508,None,0.005370398405830201,0.010979424164361262,,,01_control,001,control,53,m,11,1,sofia,2023_Mar_27_1526,CPO_EEG,2020.1.3,143.7411597647192,
stimoli/02.subtle/JM2_Anger.mp4,angry,subtle,maschio,8,10,1646,926,8,,,,,,,,,,,,,,,,,1,0,1,0,,,,,,,,,0,54,54,7,,,8.659864761284553e-06,0.0033808749167292262,2658.038889202497,None,0.0062001416363273165,0.012616138393241272,23.0,132.0,1,0,0,15.500745069009099,click_1,0.0062001416363273165,None,2669.0236067883066,None,2669.0236067883066,None,0.005414018458395731,0.011048703072447097,2684.5246017104196,None,0.006057414254428295,0.012343192320258822,2.0,-2.0,1,0,0,1.3516363293465474,click_2,0.006057414254428295,None,2685.0265431235553,None,2685.0265431235553,None,2685.0265431235553,None,0.005410169629612938,0.011086549883657426,,,01_control,001,control,53,m,11,1,sofia,2023_Mar_27_1526,CPO_EEG,2020.1.3,143.7411597647192,
stimoli/01.full/F03-Anger-Face Forward.mp4,angry,full,femmina,2,6,720,576,34,,,,,,,,,,,,,,,,,1,0,1,0,,,,,,,,,0,55,55,33,,,0.00010071100678032963,0.00411375596831931,2687.969104172387,None,0.006193726923811482,0.012607799266334041,-56.0,83.0,1,0,0,8.488324900123189,click_1,0.006193726923811482,None,2693.992064999012,None,2693.992064999012,None,0.005396698730692151,0.011062494706493453,2702.4806622037363,None,0.0060368871709215455,0.012330362893408164,0.0,0.0,1,0,0,0.8149492981019648,click_2,0.0060368871709215455,None,2702.9824108547223,None,2702.9824108547223,None,2702.9824108547223,None,0.005324212464984157,0.01090052318340895,,,01_control,001,control,53,m,11,1,sofia,2023_Mar_27_1526,CPO_EEG,2020.1.3,143.7411597647192,
,,,,,,,,,,,,,,,,,,,,,,,,,1,0,1,0,,,,,,,,,,,,,,,,,,,,,,,,,,,,,,,,,,,,,,,,,,,,,,,,,,,,,,,,,,,01_control,001,control,53,m,11,1,sofia,2023_Mar_27_1526,CPO_EEG,2020.1.3,143.7411597647192,
