file,file_emotion,file_emotion_level,file_gender,file_id,file_duration,size_w,size_h,trigger,loop_practice_full.thisRepN,loop_practice_full.thisTrialN,loop_practice_full.thisN,loop_practice_full.thisIndex,loop_istr_practice.thisRepN,loop_istr_practice.thisTrialN,loop_istr_practice.thisN,loop_istr_practice.thisIndex,tuto.thisRepN,tuto.thisTrialN,tuto.thisN,tuto.thisIndex,loop_practice.thisRepN,loop_practice.thisTrialN,loop_practice.thisN,loop_practice.thisIndex,exp_blocks.thisRepN,exp_blocks.thisTrialN,exp_blocks.thisN,exp_blocks.thisIndex,istr_1.thisRepN,istr_1.thisTrialN,istr_1.thisN,istr_1.thisIndex,istr_2.thisRepN,istr_2.thisTrialN,istr_2.thisN,istr_2.thisIndex,exp.thisRepN,exp.thisTrialN,exp.thisN,exp.thisIndex,img_tutorial.started,img_tutorial.stopped,p_port.started,p_port.stopped,mov_target.started,mov_target.stopped,p_port_2.started,p_port_2.stopped,primary.x,primary.y,primary.leftButton,primary.midButton,primary.rightButton,primary.time,primary.clicked_name,primary.started,primary.stopped,img_primary_wheel.started,img_primary_wheel.stopped,click_1.started,click_1.stopped,p_port_4.started,p_port_4.stopped,txt_iwi.started,txt_iwi.stopped,p_port_3.started,p_port_3.stopped,secondary.x,secondary.y,secondary.leftButton,secondary.midButton,secondary.rightButton,secondary.time,secondary.clicked_name,secondary.started,secondary.stopped,img_secondary_wheel.started,img_secondary_wheel.stopped,click_2.started,click_2.stopped,primary_pos.started,primary_pos.stopped,p_port_5.started,p_port_5.stopped,kb_end_practice.keys,kb_end_practice.rt,participant,session,group,age,sex,education,practice,experimenter,date,expName,psychopyVersion,frameRate,
stimoli/03.practice/F04-Sadness-Face Forward.mp4,sadness,full,femmina,9,6,700,700,60,0,0,0,0,,,,,,,,,0,0,0,3,,,,,,,,,,,,,,,,,135.04737873867998,None,0.0012210485874675214,0.005889386513445061,140.6045479971217,None,0.005825591793836793,0.024941240844782442,-27.0,-147.0,1,0,0,9.037474998494872,click_1,0.005825591793836793,None,146.65205214425805,None,146.65205214425805,None,0.004707500003860332,0.009664501900260802,155.67701163508173,None,0.005854458187968703,0.011972851472819457,-55.0,-37.0,1,0,0,19.77657568833456,click_2,0.005854458187968703,None,156.1785858159492,None,156.1785858159492,None,156.1785858159492,None,0.0045131329279684,0.00930078529563616,,,03_control,001,control,35,m,16,1,alice e filo,2023_Mar_20_1608,CPO_EEG,2020.1.3,143.72566013006596,
stimoli/03.practice/F04-Neutral-Face Forward.mp4,neutral,full,femmina,9,6,700,700,62,0,0,0,0,,,,,,,,,0,1,1,5,,,,,,,,,,,,,,,,,,,0.0014226964267436415,0.004387596171000041,177.56963344807082,None,0.0061562724149553105,0.012580328773765359,-1.0,1.0,1,0,0,4.493522059699899,click_1,0.0061562724149553105,None,183.59321408731557,None,183.59321408731557,None,0.005487213471496943,0.011233871704462217,188.0871197493616,None,0.006098539619415533,0.012451712933398085,-4.0,2.0,1,0,0,9.783919299814443,click_2,0.006098539619415533,None,188.58878598196316,None,188.58878598196316,None,188.58878598196316,None,0.0052687910610984545,0.010782593690237263,,,03_control,001,control,35,m,16,1,alice e filo,2023_Mar_20_1608,CPO_EEG,2020.1.3,143.72566013006596,
stimoli/03.practice/F04-Joy-Face Forward.mp4,joy,full,femmina,9,6,700,700,59,0,0,0,0,,,,,,,,,0,2,2,2,,,,,,,,,,,,,,,,,,,0.0023935695899126586,0.006640458112087799,199.98799157870963,None,0.006173912985104835,0.012631005327421008,128.0,86.0,1,0,0,8.48743124986504,click_1,0.006173912985104835,None,206.01196223505394,None,206.01196223505394,None,0.00538169074934558,0.010997487981512677,214.49960356814336,None,0.0060619755095103756,0.012371849228657084,39.0,51.0,1,0,0,2.0691719064525387,click_2,0.0060619755095103756,None,215.00133491050656,None,215.00133491050656,None,215.00133491050656,None,0.005399331326771062,0.011045277908124262,,,03_control,001,control,35,m,16,1,alice e filo,2023_Mar_20_1608,CPO_EEG,2020.1.3,143.72566013006596,
stimoli/03.practice/F04-Disgust-Face Forward.mp4,disgust,full,femmina,9,6,700,700,58,0,0,0,0,,,,,,,,,0,3,3,1,,,,,,,,,,,,,,,,,,,0.0019248755234002601,0.01782577012272668,218.7451267106553,None,0.006165253067592857,0.012584177620738046,-173.0,110.0,1,0,0,3.888275816501846,click_1,0.006165253067592857,None,224.7577281760423,None,224.7577281760423,None,0.005384898126067128,0.011021222573617706,228.64626892192246,None,0.006079936825699406,0.012428619811544195,-165.0,105.0,1,0,0,1.6791224102016713,click_2,0.006079936825699406,None,229.14799673617017,None,229.14799673617017,None,229.14799673617017,None,0.0053274860729288775,0.010941358876152663,,,03_control,001,control,35,m,16,1,alice e filo,2023_Mar_20_1608,CPO_EEG,2020.1.3,143.72566013006596,
stimoli/03.practice/F04-Surprise-Face Forward.mp4,surprise,full,femmina,9,6,700,700,61,0,0,0,0,,,,,,,,,0,4,4,4,,,,,,,,,,,,,,,,,,,0.000897905327292392,0.004627764599717921,232.42974079258056,None,0.006174875205033459,0.01264287263256847,38.0,-200.0,1,0,0,1.8534186795113783,click_1,0.006174875205033459,None,238.65456416230154,None,238.65456416230154,None,0.005362125746614765,0.010953867644275306,240.50818234069084,None,0.006080257564462954,0.012411941450409358,45.0,-188.0,1,0,0,3.247296180783451,click_2,0.006080257564462954,None,241.00987936411912,None,241.00987936411912,None,241.00987936411912,None,0.005289318276481936,0.010817233363923151,,,03_control,001,control,35,m,16,1,alice e filo,2023_Mar_20_1608,CPO_EEG,2020.1.3,143.72566013006596,
stimoli/03.practice/F04-Anger-Face Forward.mp4,anger,full,femmina,9,6,700,700,57,0,0,0,0,,,,,,,,,0,5,5,0,,,,,,,,,,,,,,,,,,,0.0037036549983895384,0.007920073436253006,245.91173425466332,None,0.006153065038233763,0.012560443032270996,-25.0,137.0,1,0,0,9.191137887723016,click_1,0.006153065038233763,None,251.93333337609874,None,251.93333337609874,None,0.005373672302084742,0.011034693558030995,261.12479456747315,None,0.006080578303226503,0.012419959897670196,-50.0,77.0,1,0,0,1.288851925644849,click_2,0.006080578303226503,None,261.62651564622865,None,261.62651564622865,None,261.62651564622865,None,0.005263979997835122,0.01080376238678582,,,03_control,001,control,35,m,16,1,alice e filo,2023_Mar_20_1608,CPO_EEG,2020.1.3,143.72566013006596,
,,,,,,,,,0,0,0,0,,,,,,,,,,,,,,,,,,,,,,,,,,,,,,,,,,,,,,,,,,,,,,,,,,,,,,,,,,,,,,,,,,,,,,,,,n,59.16229875310091,03_control,001,control,35,m,16,1,alice e filo,2023_Mar_20_1608,CPO_EEG,2020.1.3,143.72566013006596,
,,,,,,,,,,,,,,,,,,,,,,,,,0,0,0,0,0,0,0,0,,,,,,,,,,,,,,,,,,,,,,,,,,,,,,,,,,,,,,,,,,,,,,,,,,,,,,,03_control,001,control,35,m,16,1,alice e filo,2023_Mar_20_1608,CPO_EEG,2020.1.3,143.72566013006596,
stimoli/02.subtle/JF1_Fear.mp4,fear,subtle,femmina,5,10,1646,926,1,,,,,,,,,,,,,,,,,0,0,0,0,,,,,,,,,0,0,0,0,,,0.00665040098465397,0.012273575186554808,331.05734983379443,None,0.0058733817168104,0.012005245986074442,,,,,,,,0.0058733817168104,20.005721672761865,341.8772004213206,None,341.8772004213206,None,0.005544304789509624,0.011391033200197853,361.8779445328946,None,0.005844836057804059,0.011963870816543931,-125.0,-85.0,1,0,0,4.3160844848862325,click_2,0.005844836057804059,None,362.3797791528159,None,362.3797791528159,None,362.3797791528159,None,0.004317482900660252,0.008909485241019865,,,03_control,001,control,35,m,16,1,alice e filo,2023_Mar_20_1608,CPO_EEG,2020.1.3,143.72566013006596,
stimoli/02.subtle/JF1_Anger.mp4,angry,subtle,femmina,5,10,1646,926,5,,,,,,,,,,,,,,,,,0,0,0,0,,,,,,,,,0,1,1,4,,,0.0023105305881472304,0.006365938676026417,368.31802783490275,None,0.0061758374140481465,0.012590592374181142,-29.0,140.0,1,0,0,5.797556748129864,click_1,0.0061758374140481465,None,379.14210799111606,None,379.14210799111606,None,0.005015087506762939,0.010282563544024015,384.9399190842814,None,0.006093407813750673,0.012435676046152366,16.0,92.0,1,0,0,6.578530713206419,click_2,0.006093407813750673,None,385.44165010590586,None,385.44165010590586,None,385.44165010590586,None,0.005222925559792202,0.010685730885597877,,,03_control,001,control,35,m,16,1,alice e filo,2023_Mar_20_1608,CPO_EEG,2020.1.3,143.72566013006596,
stimoli/02.subtle/JM2_Disgust.mp4,disgusted,subtle,maschio,8,10,1646,926,12,,,,,,,,,,,,,,,,,0,0,0,0,,,,,,,,,0,2,2,11,,,0.005110506983328378,0.02195276687416481,393.6386437026995,None,0.006176799626700813,0.012592837538250023,-168.0,102.0,1,0,0,6.271439073301735,click_1,0.006176799626700813,None,404.249983642374,None,404.249983642374,None,0.005341277792467736,0.010930453790933825,410.52165749570486,None,0.006068069535103859,0.012434393094736151,-75.0,110.0,1,0,0,3.6232248769301805,click_2,0.006068069535103859,None,411.02344208053546,None,411.02344208053546,None,411.02344208053546,None,0.005296695246215677,0.010851552306121448,,,03_control,001,control,35,m,16,1,alice e filo,2023_Mar_20_1608,CPO_EEG,2020.1.3,143.72566013006596,
stimoli/01.full/F03-Sadness-Face Forward.mp4,sad,full,femmina,2,6,720,576,46,,,,,,,,,,,,,,,,,0,0,0,0,,,,,,,,,0,3,3,45,,,0.004574490063532721,0.008345403766725212,416.2389842620396,None,0.006144725852209376,0.01252580335130915,-32.0,-207.0,1,0,0,5.344593580368382,click_1,0.006144725852209376,None,422.2651439535148,None,422.2651439535148,None,0.005372389354306506,0.010998770932928892,427.61002074531643,None,0.006068711005354999,0.012379226202028804,-12.0,61.0,1,0,0,3.232950864261511,click_2,0.006068711005354999,None,428.11169820373834,None,428.11169820373834,None,428.11169820373834,None,0.005294129347021226,0.010874003950448241,,,03_control,001,control,35,m,16,1,alice e filo,2023_Mar_20_1608,CPO_EEG,2020.1.3,143.72566013006596,
stimoli/01.full/F01-Joy-Face Forward.mp4,happy,full,femmina,1,6,720,576,41,,,,,,,,,,,,,,,,,0,0,0,0,,,,,,,,,0,4,4,40,,,0.00652585851639742,0.01023454909955035,432.9349312915583,None,0.006050428954040399,0.012343303573288722,176.0,99.0,1,0,0,4.41071751599884,click_1,0.006050428954040399,None,438.95988821647916,None,438.95988821647916,None,0.0053569939445878845,0.010989148802764248,443.3709973532714,None,0.006054277811927022,0.012368962594337063,39.0,55.0,1,0,0,1.2749030409759143,click_2,0.006054277811927022,None,443.8727049610425,None,443.8727049610425,None,443.8727049610425,None,0.005243452782451641,0.010735124506027205,,,03_control,001,control,35,m,16,1,alice e filo,2023_Mar_20_1608,CPO_EEG,2020.1.3,143.72566013006596,
stimoli/02.subtle/JF1_Happiness.mp4,happy,subtle,femmina,5,10,1646,926,13,,,,,,,,,,,,,,,,,0,0,0,0,,,,,,,,,0,5,5,12,,,0.005662496641889447,0.022429383163398597,446.8328225050136,None,0.0061658945414819755,0.01256525409189635,130.0,83.0,1,0,0,4.926583450189355,click_1,0.0061658945414819755,None,457.6470239385817,None,457.6470239385817,None,0.005271036228805315,0.010791574350150768,462.573848904296,None,0.006032146902725799,0.012364151527435752,66.0,13.0,1,0,0,1.2609859093499836,click_2,0.006032146902725799,None,463.0756289987985,None,463.0756289987985,None,463.0756289987985,None,0.005268791064736433,0.010791574346512789,,,03_control,001,control,35,m,16,1,alice e filo,2023_Mar_20_1608,CPO_EEG,2020.1.3,143.72566013006596,
stimoli/01.full/F03-Disgust-Face Forward.mp4,disgusted,full,femmina,2,6,720,576,38,,,,,,,,,,,,,,,,,0,0,0,0,,,,,,,,,0,6,6,37,,,0.0065032144339056686,0.01020933911058819,465.9538872132107,None,0.006153065038233763,0.012546972047857707,-44.0,185.0,1,0,0,1.762746759588481,click_1,0.006153065038233763,None,471.9793088871302,None,471.9793088871302,None,0.005398048371716868,0.011046560855902499,473.74233757519687,None,0.00607608797508874,0.01244529817631701,-55.0,81.0,1,0,0,2.3549883700470673,click_2,0.00607608797508874,None,474.24406089911645,None,474.24406089911645,None,474.24406089911645,None,0.005288356063829269,0.010857646324438974,,,03_control,001,control,35,m,16,1,alice e filo,2023_Mar_20_1608,CPO_EEG,2020.1.3,143.72566013006596,
stimoli/02.subtle/JM1_Surprise.mp4,surprised,subtle,maschio,7,10,1646,926,23,,,,,,,,,,,,,,,,,0,0,0,0,,,,,,,,,0,7,7,22,,,0.002047461486654356,0.016284047913359245,478.2178251927944,None,0.006179044790769694,0.012602459672052646,10.0,-66.0,1,0,0,6.536433242286876,click_1,0.006179044790769694,None,488.63047868184367,None,488.63047868184367,None,0.005369823455112055,0.011012883394869277,495.1671848719525,None,0.0060732013334927615,0.012402319316606736,14.0,-64.0,1,0,0,1.5327662476120167,click_2,0.0060732013334927615,None,495.66893449637064,None,495.66893449637064,None,495.66893449637064,None,0.005229340320511255,0.01070272999277222,,,03_control,001,control,35,m,16,1,alice e filo,2023_Mar_20_1608,CPO_EEG,2020.1.3,143.72566013006596,
stimoli/02.subtle/JM1_Neutral.mp4,neutral,subtle,maschio,7,10,1646,926,27,,,,,,,,,,,,,,,,,0,0,0,0,,,,,,,,,0,8,8,26,,,0.0022472169584943913,0.01867829106049612,498.8089865585207,None,0.006173912992380792,0.01264287263256847,-15.0,66.0,1,0,0,5.671966109566711,click_1,0.006173912992380792,None,509.2199096674194,None,509.2199096674194,None,0.005491383060871158,0.011252795229665935,514.8922212115394,None,0.006094370022765361,0.012456844731786987,-38.0,55.0,1,0,0,1.2609140640961414,click_2,0.006094370022765361,None,515.3939794958751,None,515.3939794958751,None,515.3939794958751,None,0.005301827051880537,0.01089004083769396,,,03_control,001,control,35,m,16,1,alice e filo,2023_Mar_20_1608,CPO_EEG,2020.1.3,143.72566013006596,
stimoli/02.subtle/JF2_Surprise.mp4,surprised,subtle,femmina,6,10,1646,926,22,,,,,,,,,,,,,,,,,0,0,0,0,,,,,,,,,0,9,9,21,,,0.003888592382281786,0.007621979770192411,518.2815285206416,None,0.006152744295832235,0.012579366553836735,-58.0,81.0,1,0,0,5.1842991174562485,click_1,0.006152744295832235,None,528.7044510701744,None,528.7044510701744,None,0.0053595598437823355,0.010963489778077928,533.888979515119,None,0.006095011507568415,0.012435996784915915,13.0,-62.0,1,0,0,4.975477674728609,click_2,0.006095011507568415,None,534.3907281773245,None,534.3907281773245,None,534.3907281773245,None,0.005250509009783855,0.010787084018375026,,,03_control,001,control,35,m,16,1,alice e filo,2023_Mar_20_1608,CPO_EEG,2020.1.3,143.72566013006596,
stimoli/01.full/F01-Neutral-Face Forward.mp4,neutral,full,femmina,1,6,720,576,53,,,,,,,,,,,,,,,,,0,0,0,0,,,,,,,,,0,10,10,52,,,0.006121215774328448,0.010326408391847508,540.9845176681592,None,0.006163970119814621,0.012573272539157188,0.0,0.0,1,0,0,2.2087646721483907,click_1,0.006163970119814621,None,547.0102203083443,None,547.0102203083443,None,0.005349937713617692,0.010958678714814596,549.2192332315099,None,0.006173912985104835,0.012590592377819121,0.0,0.0,1,0,0,1.8951736025119317,click_2,0.006173912985104835,None,549.7209241609162,None,549.7209241609162,None,549.7209241609162,None,0.005221642615651945,0.010686051631637383,,,03_control,001,control,35,m,16,1,alice e filo,2023_Mar_20_1608,CPO_EEG,2020.1.3,143.72566013006596,
stimoli/02.subtle/JM2_Happiness.mp4,happy,subtle,maschio,8,10,1646,926,16,,,,,,,,,,,,,,,,,0,0,0,0,,,,,,,,,0,11,11,15,,,0.0005746016795455944,0.016685900242009666,553.2313654575701,None,0.006200534222443821,0.012654098452912876,25.0,-105.0,1,0,0,10.856617076336988,click_1,0.006200534222443821,None,563.8422557229242,None,563.8422557229242,None,0.005359239108656766,0.010971828964102315,574.6990835239594,None,0.0060475423124444205,0.012352925703453366,56.0,-80.0,1,0,0,5.783443966472987,click_2,0.0060475423124444205,None,575.2008309032099,None,575.2008309032099,None,575.2008309032099,None,0.005269111803499982,0.010825251814821968,,,03_control,001,control,35,m,16,1,alice e filo,2023_Mar_20_1608,CPO_EEG,2020.1.3,143.72566013006596,
stimoli/01.full/M03-Joy-Face Forward.mp4,happy,full,maschio,4,6,720,576,44,,,,,,,,,,,,,,,,,0,0,0,0,,,,,,,,,0,12,12,43,,,0.003550406501744874,0.007753033212793525,582.6523359971652,None,0.006135424460808281,0.012539274339360418,122.0,171.0,1,0,0,3.4490639589566854,click_1,0.006135424460808281,None,588.6756792904744,None,588.6756792904744,None,0.005375596734666033,0.011001016100635752,592.1250075373355,None,0.006011298948578769,0.012278193811653182,77.0,53.0,1,0,0,1.2748167625250062,click_2,0.006011298948578769,None,592.626702315596,None,592.626702315596,None,592.626702315596,None,0.005286431638523936,0.01080408312191139,,,03_control,001,control,35,m,16,1,alice e filo,2023_Mar_20_1608,CPO_EEG,2020.1.3,143.72566013006596,
stimoli/02.subtle/JF2_Sadness.mp4,sad,subtle,femmina,6,8,1646,926,18,,,,,,,,,,,,,,,,,0,0,0,0,,,,,,,,,0,13,13,17,,,0.004465503370738588,0.021604766418022336,595.5208595001859,None,0.006171988559799502,0.012602459672052646,-24.0,-148.0,1,0,0,4.048486566862266,click_1,0.006171988559799502,None,603.8895773702825,None,603.8895773702825,None,0.005363729436794529,0.010973753389407648,607.9383137918521,None,0.0060850686313642655,0.012456524000299396,-63.0,-14.0,1,0,0,4.361938115576777,click_2,0.0060850686313642655,None,608.4400262106865,None,608.4400262106865,None,608.4400262106865,None,0.005274243601888884,0.010800555002788315,,,03_control,001,control,35,m,16,1,alice e filo,2023_Mar_20_1608,CPO_EEG,2020.1.3,143.72566013006596,
stimoli/01.full/F01-Anger-Face Forward.mp4,angry,full,femmina,1,6,720,576,33,,,,,,,,,,,,,,,,,0,0,0,0,,,,,,,,,0,14,14,32,,,0.0009062124336196575,0.004727161227492616,614.3978447064801,None,0.006165894545119954,0.012599252298969077,-38.0,195.0,1,0,0,2.1669327720846923,click_1,0.006165894545119954,None,620.4192953263373,None,620.4192953263373,None,0.005379766324040247,0.011033731345378328,622.586507461001,None,0.006110727648774628,0.012462938750104513,-36.0,184.0,1,0,0,2.452577961725183,click_2,0.006110727648774628,None,623.0881999940975,None,623.0881999940975,None,623.0881999940975,None,0.00530118557435344,0.010881380916544003,,,03_control,001,control,35,m,16,1,alice e filo,2023_Mar_20_1608,CPO_EEG,2020.1.3,143.72566013006596,
stimoli/02.subtle/JF1_Sadness.mp4,sad,subtle,femmina,5,10,1646,926,17,,,,,,,,,,,,,,,,,0,0,0,0,,,,,,,,,0,15,15,16,,,0.004483785422053188,0.021054059703601524,627.1594425834519,None,0.006184176596434554,0.01266083394511952,-18.0,-99.0,1,0,0,6.132498046707042,click_1,0.006184176596434554,None,637.9725169445737,None,637.9725169445737,None,0.005362767216865905,0.010983054780808743,644.1052343759002,None,0.006077050187741406,0.012417714729963336,-61.0,-15.0,1,0,0,9.624108509429789,click_2,0.006077050187741406,None,644.6070080556492,None,644.6070080556492,None,644.6070080556492,None,0.005265583688014885,0.01082204443810042,,,03_control,001,control,35,m,16,1,alice e filo,2023_Mar_20_1608,CPO_EEG,2020.1.3,143.72566013006596,
stimoli/02.subtle/JF2_Anger.mp4,angry,subtle,femmina,6,9,1646,926,6,,,,,,,,,,,,,,,,,0,0,0,0,,,,,,,,,0,16,16,5,,,0.003181942978699226,0.01917809669248527,655.8573685648771,None,0.006184818073961651,0.012640948207263136,-89.0,131.0,1,0,0,5.407377994568378,click_1,0.006184818073961651,None,665.3468794783003,None,665.3468794783003,None,0.005328127546817996,0.010909605840424774,670.7544277846137,None,0.006065182889869902,0.012382433575112373,-54.0,32.0,1,0,0,2.870680464377074,click_2,0.006065182889869902,None,671.2561453352537,None,671.2561453352537,None,671.2561453352537,None,0.005285469422233291,0.01082268590471358,,,03_control,001,control,35,m,16,1,alice e filo,2023_Mar_20_1608,CPO_EEG,2020.1.3,143.72566013006596,
stimoli/01.full/M02-Disgust-Face Forward.mp4,disgusted,full,maschio,3,6,720,576,39,,,,,,,,,,,,,,,,,0,0,0,0,,,,,,,,,0,17,17,38,,,0.0005720357694372069,0.01634688043850474,675.7418907875144,None,0.006148895445221569,0.012529972944321344,-108.0,158.0,1,0,0,3.421218790612329,click_1,0.006148895445221569,None,681.7528083797224,None,681.7528083797224,None,0.005379124850151129,0.01101192118221661,685.1743312297222,None,0.006092124862334458,0.012472560887545114,-170.0,105.0,1,0,0,2.1600356275484955,click_2,0.006092124862334458,None,685.6761007398782,None,685.6761007398782,None,685.6761007398782,None,0.005287393851176603,0.010832949519681279,,,03_control,001,control,35,m,16,1,alice e filo,2023_Mar_20_1608,CPO_EEG,2020.1.3,143.72566013006596,
stimoli/02.subtle/JM2_Fear.mp4,fear,subtle,maschio,8,10,1646,926,4,,,,,,,,,,,,,,,,,0,0,0,0,,,,,,,,,0,18,18,3,,,0.0017921221697179135,0.018104202565154992,689.4506772698296,None,0.0061918743085698225,0.012620420991879655,-56.0,-81.0,1,0,0,5.499235040468193,click_1,0.0061918743085698225,None,700.0603185823893,None,700.0603185823893,None,0.0053515413965214975,0.010936868544376921,705.5597823088756,None,0.006047542316082399,0.01235901972540887,14.0,-62.0,1,0,0,4.827971988044737,click_2,0.006047542316082399,None,706.0607060335897,None,706.0607060335897,None,706.0607060335897,None,0.005241528353508329,0.01073672819256899,,,03_control,001,control,35,m,16,1,alice e filo,2023_Mar_20_1608,CPO_EEG,2020.1.3,143.72566013006596,
stimoli/01.full/M03-Disgust-Face Forward.mp4,disgusted,full,maschio,4,6,720,576,40,,,,,,,,,,,,,,,,,0,0,0,0,,,,,,,,,0,19,19,39,,,0.0035904666510759853,0.020594057630660245,712.492766080828,None,0.006165253067592857,0.012568461472255876,-163.0,105.0,1,0,0,2.487495718152786,click_1,0.006165253067592857,None,718.5060484724527,None,718.5060484724527,None,0.0053557109931716695,0.011000695361872204,720.9938360619562,None,0.006081540519517148,0.012415790304658003,-168.0,104.0,1,0,0,1.950862014771701,click_2,0.006081540519517148,None,721.4955564992379,None,721.4955564992379,None,721.4955564992379,None,0.005230302533163922,0.01070529589196667,,,03_control,001,control,35,m,16,1,alice e filo,2023_Mar_20_1608,CPO_EEG,2020.1.3,143.72566013006596,
stimoli/01.full/F03-Joy-Face Forward.mp4,happy,full,femmina,2,6,720,576,42,,,,,,,,,,,,,,,,,0,0,0,0,,,,,,,,,0,20,20,41,,,0.004205673722026404,0.007942909964185674,725.0458484988812,None,0.006162366429634858,0.012576159180753166,172.0,107.0,1,0,0,5.84679897312526,click_1,0.006162366429634858,None,731.0733289884047,None,731.0733289884047,None,0.005350899926270358,0.010935906335362233,736.9204037959935,None,0.006082502728531836,0.012455241048883181,159.0,104.0,1,0,0,1.5119699327624403,click_2,0.006082502728531836,None,737.4222057006627,None,737.4222057006627,None,737.4222057006627,None,0.005267828844807809,0.010790291395096574,,,03_control,001,control,35,m,16,1,alice e filo,2023_Mar_20_1608,CPO_EEG,2020.1.3,143.72566013006596,
stimoli/01.full/F03-Anger-Face Forward.mp4,angry,full,femmina,2,6,720,576,34,,,,,,,,,,,,,,,,,0,0,0,0,,,,,,,,,0,21,21,33,,,0.006321259912510868,0.01042477866212721,740.5320298337429,None,0.006130934129032539,0.012526444825198269,-26.0,133.0,1,0,0,5.53272198580089,click_1,0.006130934129032539,None,746.5584150038558,None,746.5584150038558,None,0.005364370914321626,0.011016411510354374,752.0914574066664,None,0.006090841910918243,0.012495974740886595,-34.0,134.0,1,0,0,3.3165931749572337,click_2,0.006090841910918243,None,752.5931932393614,None,752.5931932393614,None,752.5931932393614,None,0.005247301633062307,0.010750199176982278,,,03_control,001,control,35,m,16,1,alice e filo,2023_Mar_20_1608,CPO_EEG,2020.1.3,143.72566013006596,
stimoli/01.full/M02-Surprise-Face Forward.mp4,surprised,full,maschio,3,6,720,576,51,,,,,,,,,,,,,,,,,0,0,0,0,,,,,,,,,0,22,22,50,,,0.0054890095998416655,0.009308675442298409,757.521441959936,None,0.006154989459901117,0.012557877125800587,43.0,-202.0,1,0,0,6.278351292508887,click_1,0.006154989459901117,None,763.5429384452946,None,763.5429384452946,None,0.005357314679713454,0.010971508225338766,769.8215597989874,None,0.006087313799071126,0.012425091699697077,49.0,-191.0,1,0,0,2.117983701391495,click_2,0.006087313799071126,None,770.323280236269,None,770.323280236269,None,770.323280236269,None,0.005390671409259085,0.011033731349016307,,,03_control,001,control,35,m,16,1,alice e filo,2023_Mar_20_1608,CPO_EEG,2020.1.3,143.72566013006596,
stimoli/01.full/M03-Sadness-Face Forward.mp4,sad,full,maschio,4,6,720,576,48,,,,,,,,,,,,,,,,,0,0,0,0,,,,,,,,,0,23,23,47,,,0.001997330182348378,0.005625836325634737,774.0293176753439,None,0.006169101921841502,0.012573914013046306,-28.0,-140.0,1,0,0,6.529735917367361,click_1,0.006169101921841502,None,780.0529727257453,None,780.0529727257453,None,0.0053714271416538395,0.011036297248210758,786.5830075706945,None,0.005836496875417652,0.011947192455409095,-22.0,-126.0,1,0,0,3.7697542379100923,click_2,0.005836496875417652,None,787.0848043435581,None,787.0848043435581,None,787.0848043435581,None,0.005260451882350026,0.010769764183351072,,,03_control,001,control,35,m,16,1,alice e filo,2023_Mar_20_1608,CPO_EEG,2020.1.3,143.72566013006596,
stimoli/02.subtle/JF2_Disgust.mp4,disgusted,subtle,femmina,6,10,1646,926,10,,,,,,,,,,,,,,,,,0,0,0,0,,,,,,,,,0,24,24,9,,,0.002645316646521678,0.006948013538931264,792.4631947019261,None,0.0061482539676944725,0.012582253195432713,-12.0,-63.0,1,0,0,3.8951277370179014,click_1,0.0061482539676944725,None,802.886818704912,None,802.886818704912,None,0.005323637215042254,0.010934944119071588,806.7821902026153,None,0.006062937725801021,0.012382112839986803,-51.0,33.0,1,0,0,1.177270149706601,click_2,0.006062937725801021,None,807.2839106398969,None,807.2839106398969,None,807.2839106398969,None,0.005314335823641159,0.010896455594775034,,,03_control,001,control,35,m,16,1,alice e filo,2023_Mar_20_1608,CPO_EEG,2020.1.3,143.72566013006596,
stimoli/02.subtle/JF1_Surprise.mp4,surprised,subtle,femmina,5,10,1646,926,21,,,,,,,,,,,,,,,,,0,0,0,0,,,,,,,,,0,25,25,20,,,0.0002744232151599135,0.003767257290746784,810.0709978664527,None,0.00617006413085619,0.012624590573977912,27.0,-141.0,1,0,0,6.501364739120618,click_1,0.00617006413085619,None,820.8929072695828,None,820.8929072695828,None,0.005358918366255239,0.010971187486575218,827.3944840163531,None,0.006090521172154695,0.012441128586942796,38.0,-56.0,1,0,0,13.206452794460347,click_2,0.006090521172154695,None,827.8962439043789,None,827.8962439043789,None,827.8962439043789,None,0.005259810408460908,0.010800875745189842,,,03_control,001,control,35,m,16,1,alice e filo,2023_Mar_20_1608,CPO_EEG,2020.1.3,143.72566013006596,
stimoli/01.full/F01-Fear-Face Forward.mp4,fear,full,femmina,1,6,720,576,29,,,,,,,,,,,,,,,,,0,0,0,0,,,,,,,,,0,26,26,28,,,0.004447157174581662,0.008662292661028914,842.6957292485858,None,0.006129330442490755,0.012538312126707751,-73.0,-121.0,1,0,0,5.316640323406318,click_1,0.006129330442490755,None,848.7224162329221,None,848.7224162329221,None,0.0053736723093607,0.010997808723914204,854.0393237308708,None,0.006088276008085813,0.012467108343116706,-80.0,-115.0,1,0,0,1.4909054811505484,click_2,0.006088276008085813,None,854.5411189000479,None,854.5411189000479,None,854.5411189000479,None,0.005302147790644085,0.010851873048522975,,,03_control,001,control,35,m,16,1,alice e filo,2023_Mar_20_1608,CPO_EEG,2020.1.3,143.72566013006596,
stimoli/02.subtle/JM2_Neutral.mp4,neutral,subtle,maschio,8,10,1646,926,28,,,,,,,,,,,,,,,,,0,0,0,0,,,,,,,,,0,27,27,27,,,0.0031979798623069655,0.006847975437267451,857.645848434735,None,0.00617230929856305,0.012585460572154261,0.0,0.0,1,0,0,0.5572016529549728,click_1,0.00617230929856305,None,868.6321850066633,None,868.6321850066633,None,0.005385539599956246,0.011053296348109143,869.1896490230974,None,0.006156272411317332,0.01260149745939998,0.0,0.0,1,0,0,0.4666237091914809,click_2,0.006156272411317332,None,869.6913425184066,None,869.6913425184066,None,869.6913425184066,None,0.005307279592670966,0.010865344029298285,,,03_control,001,control,35,m,16,1,alice e filo,2023_Mar_20_1608,CPO_EEG,2020.1.3,143.72566013006596,
stimoli/01.full/M02-Joy-Face Forward.mp4,happy,full,maschio,3,6,720,576,43,,,,,,,,,,,,,,,,,0,0,0,0,,,,,,,,,0,28,28,42,,,0.005720229441067204,0.022918828970432514,871.7759682110409,None,0.006163007910799934,0.012639665255846921,84.0,117.0,1,0,0,7.017565844249475,click_1,0.006163007910799934,None,877.788875660237,None,877.788875660237,None,0.005357635414839024,0.010974394859658787,884.8066814163249,None,0.006061654778022785,0.012366075952741085,50.0,34.0,1,0,0,4.049001992421836,click_2,0.006061654778022785,None,885.308419814919,None,885.308419814919,None,885.308419814919,None,0.005242811304924544,0.010739935569290537,,,03_control,001,control,35,m,16,1,alice e filo,2023_Mar_20_1608,CPO_EEG,2020.1.3,143.72566013006596,
stimoli/02.subtle/JM2_Sadness.mp4,sad,subtle,maschio,8,10,1646,926,20,,,,,,,,,,,,,,,,,0,0,0,0,,,,,,,,,0,29,29,19,,,0.003902255808498012,0.007787672890117392,890.9574252713101,None,0.006181289954838576,0.012621703939657891,-140.0,-30.0,1,0,0,2.0275398260055226,click_1,0.006181289954838576,None,901.5846815010009,None,901.5846815010009,None,0.005386501816246891,0.011023467741324566,903.6124676535983,None,0.006016430757881608,0.012286853732803138,-82.0,-58.0,1,0,0,1.4629782039446582,click_2,0.006016430757881608,None,904.1142586531823,None,904.1142586531823,None,904.1142586531823,None,0.005275847292068647,0.010798630577482982,,,03_control,001,control,35,m,16,1,alice e filo,2023_Mar_20_1608,CPO_EEG,2020.1.3,143.72566013006596,
stimoli/01.full/F01-Surprise-Face Forward.mp4,surprised,full,femmina,1,6,720,576,49,,,,,,,,,,,,,,,,,0,0,0,0,,,,,,,,,0,30,30,48,,,0.0044817968519055285,0.02137312962076976,907.1827663117583,None,0.006168460447952384,0.012589950903930003,41.0,-205.0,1,0,0,4.243554454213154,click_1,0.006168460447952384,None,913.1949601194683,None,913.1949601194683,None,0.00536854050369584,0.010983054784446722,917.4387490329755,None,0.006103671421442414,0.012499182117608143,43.0,-189.0,1,0,0,1.3654963801527629,click_2,0.006103671421442414,None,917.9405310519032,None,917.9405310519032,None,917.9405310519032,None,0.0053008648319519125,0.010875286894588498,,,03_control,001,control,35,m,16,1,alice e filo,2023_Mar_20_1608,CPO_EEG,2020.1.3,143.72566013006596,
stimoli/02.subtle/JM1_Sadness.mp4,sad,subtle,maschio,7,10,1646,926,19,,,,,,,,,,,,,,,,,0,0,0,0,,,,,,,,,0,31,31,18,,,0.0008110495436994825,0.004435065358848078,920.9221572692622,None,0.006143442900793161,0.012560763763758587,-8.0,-62.0,1,0,0,6.829410176109377,click_1,0.006143442900793161,None,931.3438414503507,None,931.3438414503507,None,0.005358597631129669,0.010965734945784789,938.1734985945259,None,0.006099822570831748,0.012452675146050751,-51.0,33.0,1,0,0,7.693730410941498,click_2,0.006099822570831748,None,938.6752607277158,None,938.6752607277158,None,938.6752607277158,None,0.005262697046418907,0.010807931972522056,,,03_control,001,control,35,m,16,1,alice e filo,2023_Mar_20_1608,CPO_EEG,2020.1.3,143.72566013006596,
stimoli/01.full/F03-Neutral-Face Forward.mp4,neutral,full,femmina,2,6,720,576,54,,,,,,,,,,,,,,,,,0,0,0,0,,,,,,,,,0,32,32,53,,,0.005124330778926378,0.021373867311922368,947.9935961501214,None,0.006169422660605051,0.012581290986418026,0.0,0.0,1,0,0,0.7859620785347943,click_1,0.006169422660605051,None,954.0031692096891,None,954.0031692096891,None,0.00533197640106664,0.010891323789110174,954.789344578825,None,0.00608635158278048,0.012418997681379551,0.0,0.0,1,0,0,1.3841585060290527,click_2,0.00608635158278048,None,955.2902711901806,None,955.2902711901806,None,955.2902711901806,None,0.005278092456137529,0.010809535662701819,,,03_control,001,control,35,m,16,1,alice e filo,2023_Mar_20_1608,CPO_EEG,2020.1.3,143.72566013006596,
stimoli/02.subtle/JM1_Disgust.mp4,disgusted,subtle,maschio,7,10,1646,926,11,,,,,,,,,,,,,,,,,0,0,0,0,,,,,,,,,0,33,33,10,,,0.005643605192744872,0.009169795997877372,958.283238052838,None,0.006188666924572317,0.012647362960706232,-52.0,84.0,1,0,0,3.7696705253583787,click_1,0.006188666924572317,None,968.7088159901868,None,968.7088159901868,None,0.005378804111387581,0.011037900938390521,972.4787187296715,None,0.006101105518609984,0.012452033668523654,-51.0,33.0,1,0,0,2.3063160960336972,click_2,0.006101105518609984,None,972.9804301862969,None,972.9804301862969,None,972.9804301862969,None,0.005274243605526863,0.010834232467459515,,,03_control,001,control,35,m,16,1,alice e filo,2023_Mar_20_1608,CPO_EEG,2020.1.3,143.72566013006596,
stimoli/01.full/F01-Disgust-Face Forward.mp4,disgusted,full,femmina,1,6,720,576,37,,,,,,,,,,,,,,,,,0,0,0,0,,,,,,,,,0,34,34,36,,,0.005803300515253795,0.022006330076692393,976.9037193390759,None,0.0061424806917784736,0.012520030075393151,-161.0,114.0,1,0,0,2.3063215485708497,click_1,0.0061424806917784736,None,982.9152238813622,None,982.9152238813622,None,0.005388746983953752,0.011023788483726094,985.2218369805487,None,0.0060956529778195545,0.012423167270753765,-154.0,99.0,1,0,0,3.4114856829073688,click_2,0.0060956529778195545,None,985.7236007174251,None,985.7236007174251,None,985.7236007174251,None,0.005409274195699254,0.011071578403061721,,,03_control,001,control,35,m,16,1,alice e filo,2023_Mar_20_1608,CPO_EEG,2020.1.3,143.72566013006596,
stimoli/02.subtle/JM2_Anger.mp4,angry,subtle,maschio,8,10,1646,926,8,,,,,,,,,,,,,,,,,0,0,0,0,,,,,,,,,0,35,35,7,,,0.0007025760351098143,0.0044689994101645425,990.7357088881545,None,0.006169101921841502,0.012577121389767854,-16.0,96.0,1,0,0,5.936796702302672,click_1,0.006169101921841502,None,1001.7200806206383,None,1001.7200806206383,None,0.005325240905222017,0.010931095268460922,1007.6571499500278,None,0.0060831442060589325,0.012430544240487507,-34.0,50.0,1,0,0,9.671699897233339,click_2,0.0060831442060589325,None,1008.1588707080482,None,1008.1588707080482,None,1008.1588707080482,None,0.005257885979517596,0.01077553745926707,,,03_control,001,control,35,m,16,1,alice e filo,2023_Mar_20_1608,CPO_EEG,2020.1.3,143.72566013006596,
stimoli/02.subtle/JF2_Happiness.mp4,happy,subtle,femmina,6,9,1646,926,14,,,,,,,,,,,,,,,,,0,0,0,0,,,,,,,,,0,36,36,13,,,0.0008052441880863626,0.004314115150918951,1019.4397497347491,None,0.006158517575386213,0.012605987787537742,115.0,76.0,1,0,0,3.9578505695681088,click_1,0.006158517575386213,None,1028.9465003021323,None,1028.9465003021323,None,0.0053813700142200105,0.011032448397600092,1032.904586293207,None,0.006056843707483495,0.012357416031591129,61.0,-13.0,1,0,0,1.5747533847425075,click_2,0.006056843707483495,None,1033.4062990327839,None,1033.4062990327839,None,1033.4062990327839,None,0.005309524756739847,0.0108637403427565,,,03_control,001,control,35,m,16,1,alice e filo,2023_Mar_20_1608,CPO_EEG,2020.1.3,143.72566013006596,
stimoli/01.full/M02-Fear-Face Forward.mp4,fear,full,maschio,3,6,720,576,31,,,,,,,,,,,,,,,,,0,0,0,0,,,,,,,,,0,37,37,30,,,0.0006996894007897936,0.00478652978563332,1036.5844547394117,None,0.006165253071230836,0.0125934790194151,-48.0,-81.0,1,0,0,4.654659100677236,click_1,0.006165253071230836,None,1042.6076710205743,None,1042.6076710205743,None,0.005378162637498463,0.011016090775228804,1047.262566504971,None,0.006077050187741406,0.012447222605260322,-53.0,-85.0,1,0,0,1.414269365825021,click_2,0.006077050187741406,None,1047.7642962436475,None,1047.7642962436475,None,1047.7642962436475,None,0.005263338520308025,0.010811139349243604,,,03_control,001,control,35,m,16,1,alice e filo,2023_Mar_20_1608,CPO_EEG,2020.1.3,143.72566013006596,
stimoli/02.subtle/JF2_Fear.mp4,fear,subtle,femmina,6,10,1646,926,2,,,,,,,,,,,,,,,,,0,0,0,0,,,,,,,,,0,38,38,1,,,0.005590330652921693,0.00916944318669266,1050.7830703069958,None,0.0061318963453231845,0.012539915816887515,-48.0,-80.0,1,0,0,4.752333046380954,click_1,0.0061318963453231845,None,1061.2042178938282,None,1061.2042178938282,None,0.0053011855779914185,0.010889078628679272,1065.956783154339,None,0.006089558959502028,0.012421242845448432,-46.0,-73.0,1,0,0,10.424276383564575,click_2,0.006089558959502028,None,1066.45845355653,None,1066.45845355653,None,1066.45845355653,None,0.005135043425980257,0.010518626528210007,,,03_control,001,control,35,m,16,1,alice e filo,2023_Mar_20_1608,CPO_EEG,2020.1.3,143.72566013006596,
stimoli/02.subtle/JF1_Disgust.mp4,disgusted,subtle,femmina,5,10,1646,926,9,,,,,,,,,,,,,,,,,0,0,0,0,,,,,,,,,0,39,39,8,,,0.0027092076052213088,0.006890024153108243,1078.504330601074,None,0.006076087971450761,0.012435996777639957,-55.0,83.0,1,0,0,4.591688979322498,click_1,0.006076087971450761,None,1089.3266216821285,None,1089.3266216821285,None,0.0054721387969038915,0.011232268017920433,1093.9187635431517,None,0.0060693524828820955,0.012397187514579855,-52.0,36.0,1,0,0,1.4491313138823898,click_2,0.0060693524828820955,None,1094.4205660892949,None,1094.4205660892949,None,1094.4205660892949,None,0.005286431642161915,0.010815950419782894,,,03_control,001,control,35,m,16,1,alice e filo,2023_Mar_20_1608,CPO_EEG,2020.1.3,143.72566013006596,
stimoli/01.full/M03-Surprise-Face Forward.mp4,surprised,full,maschio,4,6,720,576,52,,,,,,,,,,,,,,,,,0,0,0,0,,,,,,,,,0,40,40,51,,,0.0025073994183912873,0.006198128688993165,1097.477438023845,None,0.006148895441583591,0.01257808360242052,35.0,-195.0,1,0,0,7.985505540422309,click_1,0.006148895441583591,None,1103.4987917809012,None,1103.4987917809012,None,0.005346730333258165,0.010968942322506336,1111.484562892183,None,0.006027656578226015,0.012329191114986315,40.0,-189.0,1,0,0,2.9471927749327733,click_2,0.006027656578226015,None,1111.9862913479046,None,1111.9862913479046,None,1111.9862913479046,None,0.005289639015245484,0.010857646320800995,,,03_control,001,control,35,m,16,1,alice e filo,2023_Mar_20_1608,CPO_EEG,2020.1.3,143.72566013006596,
stimoli/02.subtle/JM1_Anger.mp4,angry,subtle,maschio,7,10,1646,926,7,,,,,,,,,,,,,,,,,0,0,0,0,,,,,,,,,0,41,41,6,,,0.0009665752768341918,0.004645437245926587,1116.542720343623,None,0.006171347085910384,0.012612081805855269,-26.0,136.0,1,0,0,3.909052887091093,click_1,0.006171347085910384,None,1126.968711711932,None,1126.968711711932,None,0.005378804104111623,0.010995563552569365,1130.8779923228212,None,0.006071918385714525,0.01239301792520564,-58.0,91.0,1,0,0,6.766630252241157,click_2,0.006071918385714525,None,1131.3797990385574,None,1131.3797990385574,None,1131.3797990385574,None,0.005240886875981232,0.010770084918476641,,,03_control,001,control,35,m,16,1,alice e filo,2023_Mar_20_1608,CPO_EEG,2020.1.3,143.72566013006596,
stimoli/02.subtle/JM1_Fear.mp4,fear,subtle,maschio,7,10,1646,926,3,,,,,,,,,,,,,,,,,0,0,0,0,,,,,,,,,0,42,42,2,,,0.005884992424398661,0.009893252063193358,1139.798509018503,None,0.006157555362733547,0.012603421888343291,-55.0,-86.0,1,0,0,3.755702075686713,click_1,0.006157555362733547,None,1150.2223145590542,None,1150.2223145590542,None,0.005369823455112055,0.011013524872396374,1153.9782693760862,None,0.006070635430660332,0.01241675251731067,11.0,-65.0,1,0,0,9.539224622909387,click_2,0.006070635430660332,None,1154.4800122650122,None,1154.4800122650122,None,1154.4800122650122,None,0.005277771721011959,0.0107934987754561,,,03_control,001,control,35,m,16,1,alice e filo,2023_Mar_20_1608,CPO_EEG,2020.1.3,143.72566013006596,
stimoli/01.full/F03-Fear-Face Forward.mp4,fear,full,femmina,2,6,720,576,30,,,,,,,,,,,,,,,,,0,0,0,0,,,,,,,,,0,43,43,29,,,0.002886318994569592,0.00652540948431124,1165.6534989922402,None,0.006058447397663258,0.012382112839986803,-105.0,-167.0,1,0,0,2.8218744427213096,click_1,0.006058447397663258,None,1171.6759124668206,None,1171.6759124668206,None,0.005395482476160396,0.0110225055286719,1174.4981140620403,None,0.006079295351810288,0.012449147026927676,-91.0,-144.0,1,0,0,1.128548161337676,click_2,0.006079295351810288,None,1174.999822632024,None,1174.999822632024,None,1174.999822632024,None,0.005233830652286997,0.010737690408859635,,,03_control,001,control,35,m,16,1,alice e filo,2023_Mar_20_1608,CPO_EEG,2020.1.3,143.72566013006596,
stimoli/01.full/M02-Neutral-Face Forward.mp4,neutral,full,maschio,3,6,720,576,55,,,,,,,,,,,,,,,,,0,0,0,0,,,,,,,,,0,44,44,54,,,0.002921471852459945,0.007261695060151396,1177.7364032853802,None,0.006154668724775547,0.01258000803500181,0.0,0.0,1,0,0,1.163448918665381,click_1,0.006154668724775547,None,1183.757778531868,None,1183.757778531868,None,0.005347371810785262,0.010976640027365647,1184.9214631927753,None,0.006137990360002732,0.012561084506160114,0.0,0.0,1,0,0,0.1948145045316778,click_2,0.006137990360002732,None,1185.4231563673493,None,1185.4231563673493,None,1185.4231563673493,None,0.00532973123335978,0.010949698054901091,,,03_control,001,control,35,m,16,1,alice e filo,2023_Mar_20_1608,CPO_EEG,2020.1.3,143.72566013006596,
stimoli/01.full/F01-Sadness-Face Forward.mp4,sad,full,femmina,1,6,720,576,45,,,,,,,,,,,,,,,,,0,0,0,0,,,,,,,,,0,45,45,44,,,0.004393626044475241,0.007971776361955563,1187.2168806201262,None,0.006193798726599198,0.012623949100088794,-33.0,-200.0,1,0,0,4.675593974236108,click_1,0.006193798726599198,None,1193.2401418045738,None,1193.2401418045738,None,0.005375917469791602,0.011019618887075922,1197.9159692758876,None,0.006089558963140007,0.012439204161637463,-50.0,-190.0,1,0,0,4.473371389936801,click_2,0.006089558963140007,None,1198.417630697426,None,1198.417630697426,None,1198.417630697426,None,0.0052806583589699585,0.010817874841450248,,,03_control,001,control,35,m,16,1,alice e filo,2023_Mar_20_1608,CPO_EEG,2020.1.3,143.72566013006596,
stimoli/02.subtle/JM1_Happiness.mp4,happy,subtle,maschio,7,10,1646,926,15,,,,,,,,,,,,,,,,,0,0,0,0,,,,,,,,,0,46,46,14,,,0.005829601017467212,0.009418014942639275,1204.4952392896048,None,0.0061626871647604275,0.012592516803124454,76.0,54.0,1,0,0,6.612657851081167,click_1,0.0061626871647604275,None,1214.9229023430526,None,1214.9229023430526,None,0.005346088859369047,0.010982413306919625,1221.5358065207256,None,0.005991092468320858,0.012243874869454885,-64.0,15.0,1,0,0,2.076226212484471,click_2,0.005991092468320858,None,1222.0375234298917,None,1222.0375234298917,None,1222.0375234298917,None,0.005255640819086693,0.010767839758045739,,,03_control,001,control,35,m,16,1,alice e filo,2023_Mar_20_1608,CPO_EEG,2020.1.3,143.72566013006596,
stimoli/01.full/M03-Anger-Face Forward.mp4,angry,full,maschio,4,6,720,576,36,,,,,,,,,,,,,,,,,0,0,0,0,,,,,,,,,0,47,47,35,,,0.006696843811369035,0.010818323873536428,1225.7111259434496,None,0.006148574706458021,0.012530614418210462,-34.0,137.0,1,0,0,1.9299300278507872,click_1,0.006148574706458021,None,1231.7371884513886,None,1231.7371884513886,None,0.005371747880417388,0.01101737372300704,1233.6674170860824,None,0.006076408710214309,0.012443694486137247,27.0,138.0,1,0,0,5.818292122810817,click_2,0.006076408710214309,None,1234.1691484284493,None,1234.1691484284493,None,1234.1691484284493,None,0.00527777171737398,0.010790932868985692,,,03_control,001,control,35,m,16,1,alice e filo,2023_Mar_20_1608,CPO_EEG,2020.1.3,143.72566013006596,
stimoli/02.subtle/JF1_Neutral.mp4,neutral,subtle,femmina,5,10,1646,926,25,,,,,,,,,,,,,,,,,0,0,0,0,,,,,,,,,0,48,48,24,,,0.003077350393141387,0.006596164228540147,1241.5943687432082,None,0.006193157249072101,0.01265377771051135,-38.0,49.0,1,0,0,5.8669958291247895,click_1,0.006193157249072101,None,1252.4212678634867,None,1252.4212678634867,None,0.0053877847640251275,0.011024429950339254,1258.2885032837112,None,0.0060167514930071775,0.012325662999501219,-33.0,48.0,1,0,0,1.720702851871465,click_2,0.0060167514930071775,None,1258.7902763219827,None,1258.7902763219827,None,1258.7902763219827,None,0.005330372710886877,0.010949056584649952,,,03_control,001,control,35,m,16,1,alice e filo,2023_Mar_20_1608,CPO_EEG,2020.1.3,143.72566013006596,
stimoli/02.subtle/JF2_Neutral.mp4,neutral,subtle,femmina,6,9,1646,926,26,,,,,,,,,,,,,,,,,0,0,0,0,,,,,,,,,0,49,49,25,,,0.004449209893209627,0.00822493466330343,1262.1303811775688,None,0.006157234623969998,0.012555952700495254,-60.0,82.0,1,0,0,4.034535116294137,click_1,0.006157234623969998,None,1271.6356428803265,None,1271.6356428803265,None,0.005373672305722721,0.011036938725737855,1275.6704679435425,None,0.006077691665268503,0.012418035472364863,-59.0,79.0,1,0,0,4.160063531733613,click_2,0.006077691665268503,None,1276.1722445099294,None,1276.1722445099294,None,1276.1722445099294,None,0.005379445585276699,0.011010317492036847,,,03_control,001,control,35,m,16,1,alice e filo,2023_Mar_20_1608,CPO_EEG,2020.1.3,143.72566013006596,
stimoli/02.subtle/JM2_Surprise.mp4,surprised,subtle,maschio,8,10,1646,926,24,,,,,,,,,,,,,,,,,0,0,0,0,,,,,,,,,0,50,50,23,,,0.00280055372058996,0.0068072096692048945,1281.9403014036761,None,0.0061363866698229685,0.012533180321042892,15.0,-104.0,1,0,0,5.776445789550053,click_1,0.0061363866698229685,None,1292.923121727672,None,1292.923121727672,None,0.005320109103195136,0.010914737642451655,1298.6998516908643,None,0.0060732013334927615,0.01240616817085538,56.0,-83.0,1,0,0,0.954308021136967,click_2,0.0060732013334927615,None,1299.2015461483861,None,1299.2015461483861,None,1299.2015461483861,None,0.005352503612812143,0.01096541420702124,,,03_control,001,control,35,m,16,1,alice e filo,2023_Mar_20_1608,CPO_EEG,2020.1.3,143.72566013006596,
stimoli/01.full/M02-Anger-Face Forward.mp4,angry,full,maschio,3,6,720,576,35,,,,,,,,,,,,,,,,,0,0,0,0,,,,,,,,,0,51,51,34,,,0.004481091225898126,0.008067580725764856,1301.8695777679968,None,0.0060818612546427175,0.012457486212952062,-23.0,92.0,1,0,0,1.637223475951032,click_1,0.0060818612546427175,None,1307.8948172628734,None,1307.8948172628734,None,0.005390992144384654,0.011018015196896158,1309.5323326101752,None,0.006080578303226503,0.012449467769329203,0.0,0.0,1,0,0,0.30613070961408084,click_2,0.006080578303226503,None,1310.034083196806,None,1310.034083196806,None,1310.034083196806,None,0.005432688052678714,0.011146951776026981,,,03_control,001,control,35,m,16,1,alice e filo,2023_Mar_20_1608,CPO_EEG,2020.1.3,143.72566013006596,
stimoli/01.full/M02-Sadness-Face Forward.mp4,sad,full,maschio,3,6,720,576,47,,,,,,,,,,,,,,,,,0,0,0,0,,,,,,,,,0,52,52,46,,,0.0062320948200067505,0.009905183509545168,1311.93746640272,None,0.006191874301293865,0.012624269842490321,-56.0,-79.0,1,0,0,6.487744610643858,click_1,0.006191874301293865,None,1317.6013063007013,None,1317.6013063007013,None,0.005362767224141862,0.010974394863296766,1324.0892933890827,None,0.0060674280575767625,0.01238788612317876,-53.0,82.0,1,0,0,2.236679119843757,click_2,0.0060674280575767625,None,1324.5910834264541,None,1324.5910834264541,None,1324.5910834264541,None,0.005286752373649506,0.01083038361321087,,,03_control,001,control,35,m,16,1,alice e filo,2023_Mar_20_1608,CPO_EEG,2020.1.3,143.72566013006596,
stimoli/01.full/M03-Neutral-Face Forward.mp4,neutral,full,maschio,4,6,720,576,56,,,,,,,,,,,,,,,,,0,0,0,0,,,,,,,,,0,53,53,55,,,0.005521019225852797,0.009617802483262494,1328.426397743031,None,0.006161083481856622,0.012592196067998884,0.0,0.0,1,0,0,0.9824325520603452,click_1,0.006161083481856622,None,1334.453334582071,None,1334.453334582071,None,0.0052155485973344184,0.010684768680221168,1335.435863034716,None,0.006161083478218643,0.012571668848977424,0.0,0.0,1,0,0,0.25757358044938883,click_2,0.006161083478218643,None,1335.9375382479739,None,1335.9375382479739,None,1335.9375382479739,None,0.005314656558766728,0.010872400260268478,,,03_control,001,control,35,m,16,1,alice e filo,2023_Mar_20_1608,CPO_EEG,2020.1.3,143.72566013006596,
stimoli/01.full/M03-Fear-Face Forward.mp4,fear,full,maschio,4,6,720,576,32,,,,,,,,,,,,,,,,,0,0,0,0,,,,,,,,,0,54,54,31,,,0.0034989280939043965,0.0070770784113847185,1337.8962086232277,None,0.006195402416778961,0.012632288282475201,-54.0,-83.0,1,0,0,6.138852823711204,click_1,0.006195402416778961,None,1343.920252728516,None,1343.920252728516,None,0.005356673205824336,0.010997167242749128,1350.0593640668521,None,0.006081219777115621,0.012412903663062025,-43.0,-83.0,1,0,0,9.880654446133121,click_2,0.006081219777115621,None,1350.5610389593712,None,1350.5610389593712,None,1350.5610389593712,None,0.005260772617475595,0.010787404753500596,,,03_control,001,control,35,m,16,1,alice e filo,2023_Mar_20_1608,CPO_EEG,2020.1.3,143.72566013006596,
stimoli/01.full/F03-Surprise-Face Forward.mp4,surprised,full,femmina,2,6,720,576,50,,,,,,,,,,,,,,,,,0,0,0,0,,,,,,,,,0,55,55,49,,,0.004200317402137443,0.007827861332771135,1362.061122671923,None,0.006147933228930924,0.012545689092803514,36.0,-200.0,1,0,0,3.8324684105391498,click_1,0.006147933228930924,None,1368.0824559017674,None,1368.0824559017674,None,0.005364370914321626,0.0109830547880847,1371.9151818647188,None,0.0060732013334927615,0.012411299972882261,38.0,-191.0,1,0,0,1.7279444687483192,click_2,0.0060732013334927615,None,1372.4169815242203,None,1372.4169815242203,None,1372.4169815242203,None,0.005307600335072493,0.010869834361074027,,,03_control,001,control,35,m,16,1,alice e filo,2023_Mar_20_1608,CPO_EEG,2020.1.3,143.72566013006596,
,,,,,,,,,,,,,,,,,,,,,,,,,0,0,0,0,,,,,,,,,,,,,,,,,,,,,,,,,,,,,,,,,,,,,,,,,,,,,,,,,,,,,,,,,,,03_control,001,control,35,m,16,1,alice e filo,2023_Mar_20_1608,CPO_EEG,2020.1.3,143.72566013006596,
,,,,,,,,,,,,,,,,,,,,,,,,,1,0,1,0,,,,,0,0,0,0,,,,,,,,,,,,,,,,,,,,,,,,,,,,,,,,,,,,,,,,,,,,,,,,,,,03_control,001,control,35,m,16,1,alice e filo,2023_Mar_20_1608,CPO_EEG,2020.1.3,143.72566013006596,
stimoli/01.full/F03-Joy-Face Forward.mp4,happy,full,femmina,2,6,720,576,42,,,,,,,,,,,,,,,,,1,0,1,0,,,,,,,,,0,0,0,41,,,0.00032400927375419997,0.005859301330929156,1396.44745962874,None,0.005903210327232955,0.012054318860464264,121.0,77.0,1,0,0,4.819936865980708,click_1,0.005903210327232955,None,1402.4711900525108,None,1402.4711900525108,None,0.004678633606090443,0.009615108287107432,1407.2917574889034,None,0.005741879238485126,0.011744486197130755,24.0,132.0,1,0,0,4.227802381927177,click_2,0.005741879238485126,None,1407.7932999167351,None,1407.7932999167351,None,1407.7932999167351,None,0.00432582208304666,0.00890339122270234,,,03_control,001,control,35,m,16,1,alice e filo,2023_Mar_20_1608,CPO_EEG,2020.1.3,143.72566013006596,
stimoli/01.full/M02-Neutral-Face Forward.mp4,neutral,full,maschio,3,6,720,576,55,,,,,,,,,,,,,,,,,1,0,1,0,,,,,,,,,0,1,1,54,,,0.003372621569724288,0.005937561341852415,1413.5996509731813,None,0.0061639701161766425,0.01259315828065155,12.0,67.0,1,0,0,4.940235652436968,click_1,0.0061639701161766425,None,1419.6256300893037,None,1419.6256300893037,None,0.005360201317671454,0.010976319288602099,1424.5661078987432,None,0.006065503628633451,0.012379226202028804,62.0,7.0,1,0,0,1.449501124505332,click_2,0.006065503628633451,None,1425.0679078789872,None,1425.0679078789872,None,1425.0679078789872,None,0.0053294104982342105,0.010899983706622152,,,03_control,001,control,35,m,16,1,alice e filo,2023_Mar_20_1608,CPO_EEG,2020.1.3,143.72566013006596,
stimoli/01.full/M03-Neutral-Face Forward.mp4,neutral,full,maschio,4,6,720,576,56,,,,,,,,,,,,,,,,,1,0,1,0,,,,,,,,,0,2,2,55,,,0.002295648355357116,0.006467804985732073,1428.1127774862616,None,0.006152102821943117,0.012544085406261729,0.0,0.0,1,0,0,1.435382569572539,click_1,0.006152102821943117,None,1434.1341665244727,None,1434.1341665244727,None,0.005322995741153136,0.010891965259361314,1435.5697784215336,None,0.006136707408586517,0.012542481716081966,0.0,0.0,1,0,0,0.26452974072890356,click_2,0.006136707408586517,None,1436.071575515136,None,1436.071575515136,None,1436.071575515136,None,0.005338391150871757,0.010921793869783869,,,03_control,001,control,35,m,16,1,alice e filo,2023_Mar_20_1608,CPO_EEG,2020.1.3,143.72566013006596,
stimoli/02.subtle/JM2_Anger.mp4,angry,subtle,maschio,8,10,1646,926,8,,,,,,,,,,,,,,,,,1,0,1,0,,,,,,,,,0,3,3,7,,,0.00389032436942216,0.0075470554365892895,1437.922353560767,None,0.006150819866888924,0.012563650405354565,-29.0,134.0,1,0,0,2.857167783047771,click_1,0.006150819866888924,None,1448.907708354447,None,1448.907708354447,None,0.005377841898734914,0.011047843810956692,1451.7651587074506,None,0.006033429854142014,0.01230481504171621,-80.0,118.0,1,0,0,0.8220662438907311,click_2,0.006033429854142014,None,1452.2669833844993,None,1452.2669833844993,None,1452.2669833844993,None,0.005322995741153136,0.010903511822107248,,,03_control,001,control,35,m,16,1,alice e filo,2023_Mar_20_1608,CPO_EEG,2020.1.3,143.72566013006596,
stimoli/02.subtle/JM1_Neutral.mp4,neutral,subtle,maschio,7,10,1646,926,27,,,,,,,,,,,,,,,,,1,0,1,0,,,,,,,,,0,4,4,26,,,0.005727510189899476,0.009585023086401634,1454.6739918891835,None,0.006160121269203955,0.012579687296238262,-33.0,50.0,1,0,0,2.913028431477869,click_1,0.006160121269203955,None,1465.0976514940594,None,1465.0976514940594,None,0.0054339710040949285,0.011112632833828684,1468.011024397878,None,0.006043051984306658,0.012345869472483173,-35.0,53.0,1,0,0,1.0798402854306914,click_2,0.006043051984306658,None,1468.5128356039422,None,1468.5128356039422,None,1468.5128356039422,None,0.005166796461708145,0.010582453338429332,,,03_control,001,control,35,m,16,1,alice e filo,2023_Mar_20_1608,CPO_EEG,2020.1.3,143.72566013006596,
stimoli/01.full/M03-Fear-Face Forward.mp4,fear,full,maschio,4,6,720,576,32,,,,,,,,,,,,,,,,,1,0,1,0,,,,,,,,,0,5,5,31,,,0.003699132597830612,0.007562739512650296,1471.1727644258208,None,0.006153385773359332,0.012581611721543595,-40.0,-55.0,1,0,0,3.519236246444052,click_1,0.006153385773359332,None,1477.199278853248,None,1477.199278853248,None,0.005380407805205323,0.011046240124414908,1480.7188130650575,None,0.0060956529778195545,0.012438241948984796,11.0,-65.0,1,0,0,6.035055032181845,click_2,0.0060956529778195545,None,1481.2205960462015,None,1481.2205960462015,None,1481.2205960462015,None,0.0052582067146431655,0.01080440385339898,,,03_control,001,control,35,m,16,1,alice e filo,2023_Mar_20_1608,CPO_EEG,2020.1.3,143.72566013006596,
stimoli/02.subtle/JF2_Surprise.mp4,surprised,subtle,femmina,6,10,1646,926,22,,,,,,,,,,,,,,,,,1,0,1,0,,,,,,,,,0,6,6,21,,,0.00020151952776359394,0.0037793491101183463,1488.845475288439,None,0.006162045694509288,0.01259861082144198,25.0,-101.0,1,0,0,2.257814454496838,click_1,0.006162045694509288,None,1499.2721405267548,None,1499.2721405267548,None,0.005396765420300653,0.011028599539713468,1501.5301907234934,None,0.0060712769081874285,0.01241386587935267,36.0,-51.0,1,0,0,6.22391087082724,click_2,0.0060712769081874285,None,1502.032032078907,None,1502.032032078907,None,1502.032032078907,None,0.0052630177851824556,0.010816271158546442,,,03_control,001,control,35,m,16,1,alice e filo,2023_Mar_20_1608,CPO_EEG,2020.1.3,143.72566013006596,
stimoli/01.full/M02-Fear-Face Forward.mp4,fear,full,maschio,3,6,720,576,31,,,,,,,,,,,,,,,,,1,0,1,0,,,,,,,,,0,7,7,30,,,0.006592283305508317,0.010857453878998058,1509.8537920182462,None,0.006180327742185909,0.01263260902123875,-80.0,-126.0,1,0,0,8.195826432125614,click_1,0.006180327742185909,None,1515.8768036687252,None,1515.8768036687252,None,0.0053399948446895,0.010921473138296278,1524.0728199775986,None,0.006087313799071126,0.012428619815182174,15.0,-63.0,1,0,0,1.553821077086468,click_2,0.006087313799071126,None,1524.5746565219451,None,1524.5746565219451,None,1524.5746565219451,None,0.005310807711794041,0.010874966163100908,,,03_control,001,control,35,m,16,1,alice e filo,2023_Mar_20_1608,CPO_EEG,2020.1.3,143.72566013006596,
stimoli/02.subtle/JF2_Happiness.mp4,happy,subtle,femmina,6,9,1646,926,14,,,,,,,,,,,,,,,,,1,0,1,0,,,,,,,,,0,8,8,13,,,0.005086034692794783,0.008696900262293639,1527.713479517046,None,0.0061521028183051385,0.012544726876512868,70.0,123.0,1,0,0,1.9232792099101061,click_1,0.0061521028183051385,None,1537.216809737085,None,1537.216809737085,None,0.005409274199337233,0.01108504938747501,1539.140403269983,None,0.006023486981575843,0.012315078649407951,67.0,-17.0,1,0,0,2.229772673912521,click_2,0.006023486981575843,None,1539.6422260226063,None,1539.6422260226063,None,1539.6422260226063,None,0.005291563440550817,0.010822044430824462,,,03_control,001,control,35,m,16,1,alice e filo,2023_Mar_20_1608,CPO_EEG,2020.1.3,143.72566013006596,
stimoli/01.full/F01-Sadness-Face Forward.mp4,sad,full,femmina,1,6,720,576,45,,,,,,,,,,,,,,,,,1,0,1,0,,,,,,,,,0,9,9,44,,,0.00020982663772883825,0.0038604636865784414,1543.455285950531,None,0.006161083474580664,0.012569423681270564,-28.0,-134.0,1,0,0,4.174533615238033,click_1,0.006161083474580664,None,1549.4798919883542,None,1549.4798919883542,None,0.005367899026168743,0.011020581099728588,1553.6547104187157,None,0.006065824367396999,0.012391414238663856,-34.0,-147.0,1,0,0,0.961451813000167,click_2,0.006065824367396999,None,1554.1565209833025,None,1554.1565209833025,None,1554.1565209833025,None,0.005353465832740767,0.010975357079587411,,,03_control,001,control,35,m,16,1,alice e filo,2023_Mar_20_1608,CPO_EEG,2020.1.3,143.72566013006596,
stimoli/02.subtle/JF2_Neutral.mp4,neutral,subtle,femmina,6,9,1646,926,26,,,,,,,,,,,,,,,,,1,0,1,0,,,,,,,,,0,10,10,25,,,0.003231849772419082,0.007426458039844874,1556.7056515915647,None,0.006152744295832235,0.012601818198163528,-37.0,50.0,1,0,0,6.411793591145397,click_1,0.006152744295832235,None,1566.210812903406,None,1566.210812903406,None,0.0053207505770842545,0.010901587393163936,1572.6228095215483,None,0.00607608797508874,0.012445298179954989,-64.0,14.0,1,0,0,4.474098502410925,click_2,0.00607608797508874,None,1573.1246771774568,None,1573.1246771774568,None,1573.1246771774568,None,0.005262376307655359,0.010799913528899197,,,03_control,001,control,35,m,16,1,alice e filo,2023_Mar_20_1608,CPO_EEG,2020.1.3,143.72566013006596,
stimoli/02.subtle/JM1_Anger.mp4,angry,subtle,maschio,7,10,1646,926,7,,,,,,,,,,,,,,,,,1,0,1,0,,,,,,,,,0,11,11,6,,,0.005657589361362625,0.0091930815615342,1579.1832246459999,None,0.006164611593703739,0.012569423688546522,-13.0,89.0,1,0,0,3.9306760638537526,click_1,0.006164611593703739,None,1589.6066122652664,None,1589.6066122652664,None,0.005379766324040247,0.010995563556207344,1593.5375263165297,None,0.0060613340356212575,0.012506879822467454,-33.0,50.0,1,0,0,1.4701960862294072,click_2,0.0060613340356212575,None,1594.039455554088,None,1594.039455554088,None,1594.039455554088,None,0.005326203121512663,0.010943604040221544,,,03_control,001,control,35,m,16,1,alice e filo,2023_Mar_20_1608,CPO_EEG,2020.1.3,143.72566013006596,
stimoli/02.subtle/JF1_Surprise.mp4,surprised,subtle,femmina,5,10,1646,926,21,,,,,,,,,,,,,,,,,1,0,1,0,,,,,,,,,0,12,12,20,,,0.004250833597325254,0.007880943430791376,1597.0954704773721,None,0.006164611593703739,0.012595403444720432,24.0,-100.0,1,0,0,3.4636588094472245,click_1,0.006164611593703739,None,1607.9207396084166,None,1607.9207396084166,None,0.005353786564228358,0.010988507321599172,1611.3846450651909,None,0.006083785683586029,0.012412262189172907,36.0,51.0,1,0,0,6.690900862526178,click_2,0.006083785683586029,None,1611.8864322159243,None,1611.8864322159243,None,1611.8864322159243,None,0.005384898129705107,0.0110071101153153,,,03_control,001,control,35,m,16,1,alice e filo,2023_Mar_20_1608,CPO_EEG,2020.1.3,143.72566013006596,
stimoli/02.subtle/JF2_Fear.mp4,fear,subtle,femmina,6,10,1646,926,2,,,,,,,,,,,,,,,,,1,0,1,0,,,,,,,,,0,13,13,1,,,0.005393654271756532,0.009518341710645473,1620.16961830925,None,0.0061745544626319315,0.012577121389767854,-57.0,-84.0,1,0,0,2.6272889449392096,click_1,0.0061745544626319315,None,1630.5913983909231,None,1630.5913983909231,None,0.005371747880417388,0.010999412410455989,1633.218943926062,None,0.006013864855049178,0.012322455622779671,17.0,-61.0,1,0,0,1.7559083100568387,click_2,0.006013864855049178,None,1633.7208074123773,None,1633.7208074123773,None,1633.7208074123773,None,0.00529573303356301,0.010857967063202523,,,03_control,001,control,35,m,16,1,alice e filo,2023_Mar_20_1608,CPO_EEG,2020.1.3,143.72566013006596,
stimoli/01.full/F03-Surprise-Face Forward.mp4,surprised,full,femmina,2,6,720,576,50,,,,,,,,,,,,,,,,,1,0,1,0,,,,,,,,,0,14,14,49,,,0.0002371855589444749,0.004075133456353797,1637.080450970101,None,0.006072880594729213,0.012387565380777232,62.0,-198.0,1,0,0,1.3029528400038544,click_1,0.006072880594729213,None,1643.1043975711145,None,1643.1043975711145,None,0.005362446481740335,0.010979526665323647,1644.4076900723958,None,0.006050108218914829,0.012368321120447945,31.0,-191.0,1,0,0,1.079864340765198,click_2,0.006050108218914829,None,1644.9095295033803,None,1644.9095295033803,None,1644.9095295033803,None,0.0051530047348933294,0.010589188826997997,,,03_control,001,control,35,m,16,1,alice e filo,2023_Mar_20_1608,CPO_EEG,2020.1.3,143.72566013006596,
stimoli/02.subtle/JF1_Sadness.mp4,sad,subtle,femmina,5,10,1646,926,17,,,,,,,,,,,,,,,,,1,0,1,0,,,,,,,,,0,15,15,16,,,4.406936568557285e-05,0.0036555764090735465,1647.5862611344091,None,0.006106237320636865,0.012465825391700491,-15.0,-63.0,1,0,0,7.953125461062882,click_1,0.006106237320636865,None,1658.410894563236,None,1658.410894563236,None,0.005342560740245972,0.010933340428891825,1666.364311574911,None,0.005960943122772733,0.01216978445154382,-33.0,53.0,1,0,0,1.6656055592829944,click_2,0.005960943122772733,None,1666.8662440198423,None,1666.8662440198423,None,1666.8662440198423,None,0.005230302533163922,0.010749878441856708,,,03_control,001,control,35,m,16,1,alice e filo,2023_Mar_20_1608,CPO_EEG,2020.1.3,143.72566013006596,
stimoli/01.full/F01-Surprise-Face Forward.mp4,surprised,full,femmina,1,6,720,576,49,,,,,,,,,,,,,,,,,1,0,1,0,,,,,,,,,0,16,16,48,,,0.006468831343227066,0.010474204344063764,1670.1363780112442,None,0.006168139709188836,0.012588667952513788,26.0,-182.0,1,0,0,0.9336428880233143,click_1,0.006168139709188836,None,1676.1610446685045,None,1676.1610446685045,None,0.005391312883148203,0.011034693561668973,1677.0949730131251,None,0.0060449764132499695,0.0123336814394861,40.0,-192.0,1,0,0,0.9334218997173593,click_2,0.0060449764132499695,None,1677.5967515039374,None,1677.5967515039374,None,1677.5967515039374,None,0.005273602124361787,0.01087721132353181,,,03_control,001,control,35,m,16,1,alice e filo,2023_Mar_20_1608,CPO_EEG,2020.1.3,143.72566013006596,
stimoli/01.full/M03-Sadness-Face Forward.mp4,sad,full,maschio,4,6,720,576,48,,,,,,,,,,,,,,,,,1,0,1,0,,,,,,,,,0,17,17,47,,,0.0023184207384474576,0.006061430260160705,1680.125020366846,None,0.006148574706458021,0.012560122293507447,-25.0,-132.0,1,0,0,4.508980656948552,click_1,0.006148574706458021,None,1686.14629618463,None,1686.14629618463,None,0.005337428938219091,0.01093173674235004,1690.655529582924,None,0.00607865387792117,0.012410017025104025,-31.0,-128.0,1,0,0,3.9513258015540487,click_2,0.00607865387792117,None,1691.157277603652,None,1691.157277603652,None,1691.157277603652,None,0.005286431638523936,0.010809535662701819,,,03_control,001,control,35,m,16,1,alice e filo,2023_Mar_20_1608,CPO_EEG,2020.1.3,143.72566013006596,
stimoli/02.subtle/JF1_Happiness.mp4,happy,subtle,femmina,5,10,1646,926,13,,,,,,,,,,,,,,,,,1,0,1,0,,,,,,,,,0,18,18,12,,,0.005827580367622431,0.00949232987841242,1696.692895209846,None,0.006140235524071613,0.01252099228440784,155.0,27.0,1,0,0,6.697727765498712,click_1,0.006140235524071613,None,1707.5170472113132,None,1707.5170472113132,None,0.005348654758563498,0.010946811416943092,1714.2150376610261,None,0.0060732013334927615,0.012440807848179247,125.0,81.0,1,0,0,3.1520678604101704,click_2,0.0060732013334927615,None,1714.7169534275963,None,1714.7169534275963,None,1714.7169534275963,None,0.005258848192170262,0.010777141149446834,,,03_control,001,control,35,m,16,1,alice e filo,2023_Mar_20_1608,CPO_EEG,2020.1.3,143.72566013006596,
stimoli/01.full/M02-Disgust-Face Forward.mp4,disgusted,full,maschio,3,6,720,576,39,,,,,,,,,,,,,,,,,1,0,1,0,,,,,,,,,0,19,19,38,,,0.0024418406246695668,0.006589621185412398,1719.4478403444446,None,0.006152423557068687,0.012561405241285684,-124.0,86.0,1,0,0,5.2964293549448485,click_1,0.006152423557068687,None,1725.4685481356792,None,1725.4685481356792,None,0.005378483372624032,0.010993639127264032,1730.7652437029537,None,0.006092124862334458,0.012425091699697077,-48.0,76.0,1,0,0,2.585228358864697,click_2,0.006092124862334458,None,1731.2670023080282,None,1731.2670023080282,None,1731.2670023080282,None,0.0052925256568414625,0.010855080421606544,,,03_control,001,control,35,m,16,1,alice e filo,2023_Mar_20_1608,CPO_EEG,2020.1.3,143.72566013006596,
stimoli/02.subtle/JF1_Disgust.mp4,disgusted,subtle,femmina,5,10,1646,926,9,,,,,,,,,,,,,,,,,1,0,1,0,,,,,,,,,0,20,20,8,,,0.004034079021948855,0.00762441737606423,1735.451910827207,None,0.00615659315008088,0.012581290982780047,-77.0,52.0,1,0,0,3.2334614787541796,click_1,0.00615659315008088,None,1746.27810913551,None,1746.27810913551,None,0.005352182877686573,0.010951943222607952,1749.5117957721632,None,0.006082823470933363,0.01241097924139467,-37.0,48.0,1,0,0,3.233408557025541,click_2,0.006082823470933363,None,1750.0135665652706,None,1750.0135665652706,None,1750.0135665652706,None,0.005283865739329485,0.010823648124642204,,,03_control,001,control,35,m,16,1,alice e filo,2023_Mar_20_1608,CPO_EEG,2020.1.3,143.72566013006596,
stimoli/01.full/M03-Anger-Face Forward.mp4,angry,full,maschio,4,6,720,576,36,,,,,,,,,,,,,,,,,1,0,1,0,,,,,,,,,0,21,21,35,,,0.003991036024672212,0.007613127414515475,1754.833082623325,None,0.006164932328829309,0.012571989587740973,-31.0,147.0,1,0,0,3.0331283605300996,click_1,0.006164932328829309,None,1760.8600935527866,None,1760.8600935527866,None,0.005390671409259085,0.011016411510354374,1763.8934740131845,None,0.005980187390377978,0.012208593721879879,9.0,63.0,1,0,0,0.9248373538903252,click_2,0.005980187390377978,None,1764.394398379376,None,1764.394398379376,None,1764.394398379376,None,0.005264300732960692,0.010788046231027693,,,03_control,001,control,35,m,16,1,alice e filo,2023_Mar_20_1608,CPO_EEG,2020.1.3,143.72566013006596,
stimoli/01.full/M02-Anger-Face Forward.mp4,angry,full,maschio,3,6,720,576,35,,,,,,,,,,,,,,,,,1,0,1,0,,,,,,,,,0,22,22,34,,,0.0005777128280897159,0.00443618793724454,1766.8998060178092,None,0.006120670521340799,0.01250014433026081,-26.0,130.0,1,0,0,1.5608336872137443,click_1,0.006120670521340799,None,1772.920989783859,None,1772.920989783859,None,0.00539484099499532,0.011028920282114996,1774.4821130972596,None,0.0060956529778195545,0.012434072355972603,-22.0,121.0,1,0,0,2.6270737299091707,click_2,0.0060956529778195545,None,1774.983921737421,None,1774.983921737421,None,1774.983921737421,None,0.005277130243484862,0.010808573450049153,,,03_control,001,control,35,m,16,1,alice e filo,2023_Mar_20_1608,CPO_EEG,2020.1.3,143.72566013006596,
stimoli/02.subtle/JF1_Anger.mp4,angry,subtle,femmina,5,10,1646,926,5,,,,,,,,,,,,,,,,,1,0,1,0,,,,,,,,,0,23,23,4,,,0.004981794929335592,0.008564435574953677,1779.1960849467505,None,0.0061075202756910585,0.012508804251410766,-37.0,-59.0,1,0,0,5.442805082540872,click_1,0.0061075202756910585,None,1790.0204973872678,None,1790.0204973872678,None,0.005356031731935218,0.010997487985150656,1795.4635741346792,None,0.006074163549783407,0.012396546040690737,-40.0,-46.0,1,0,0,2.6479598513324163,click_2,0.006074163549783407,None,1795.9653895103365,None,1795.9653895103365,None,1795.9653895103365,None,0.005290921970299678,0.010837119109055493,,,03_control,001,control,35,m,16,1,alice e filo,2023_Mar_20_1608,CPO_EEG,2020.1.3,143.72566013006596,
stimoli/02.subtle/JM2_Neutral.mp4,neutral,subtle,maschio,8,10,1646,926,28,,,,,,,,,,,,,,,,,1,0,1,0,,,,,,,,,0,24,24,27,,,0.004091747676284285,0.007420043290039757,1800.199091542403,None,0.006113614294008585,0.012491163677623263,0.0,0.0,1,0,0,0.5084799853211734,click_1,0.006113614294008585,None,1811.180952219056,None,1811.180952219056,None,0.0053082418053236324,0.010869192879908951,1811.6897057936767,None,0.006130292655143421,0.012539274339360418,0.0,0.0,1,0,0,0.21567881578448578,click_2,0.006130292655143421,None,1812.1915699214696,None,1812.1915699214696,None,1812.1915699214696,None,0.0053537865678663366,0.010957075028272811,,,03_control,001,control,35,m,16,1,alice e filo,2023_Mar_20_1608,CPO_EEG,2020.1.3,143.72566013006596,
stimoli/02.subtle/JF1_Fear.mp4,fear,subtle,femmina,5,10,1646,926,1,,,,,,,,,,,,,,,,,1,0,1,0,,,,,,,,,0,25,25,0,,,0.00219201799336588,0.006113036964961793,1813.9955686872709,None,0.0061626871647604275,0.012580008027725853,12.0,-67.0,1,0,0,4.515853104676353,click_1,0.0061626871647604275,None,1824.819007367987,None,1824.819007367987,None,0.005364050171920098,0.010974394859658787,1829.3351035918786,None,0.0060738428073818795,0.01241194144677138,-85.0,-119.0,1,0,0,1.505040072974225,click_2,0.0060738428073818795,None,1829.8369350044195,None,1829.8369350044195,None,1829.8369350044195,None,0.005307921066560084,0.010875928375753574,,,03_control,001,control,35,m,16,1,alice e filo,2023_Mar_20_1608,CPO_EEG,2020.1.3,143.72566013006596,
stimoli/02.subtle/JM2_Surprise.mp4,surprised,subtle,maschio,8,10,1646,926,24,,,,,,,,,,,,,,,,,1,0,1,0,,,,,,,,,0,26,26,23,,,0.0022513544754474424,0.005611723863694351,1832.9296699095394,None,0.006180648480949458,0.01261977951071458,39.0,-141.0,1,0,0,5.7495455146090535,click_1,0.006180648480949458,None,1843.9160600446703,None,1843.9160600446703,None,0.005378804111387581,0.010994601343554677,1849.665825906115,None,0.0060956529778195545,0.012475126790377544,37.0,-56.0,1,0,0,1.8744706223442336,click_2,0.0060956529778195545,None,1850.1676063213563,None,1850.1676063213563,None,1850.1676063213563,None,0.005292846391967032,0.010840005747013493,,,03_control,001,control,35,m,16,1,alice e filo,2023_Mar_20_1608,CPO_EEG,2020.1.3,143.72566013006596,
stimoli/02.subtle/JF2_Anger.mp4,angry,subtle,femmina,6,9,1646,926,6,,,,,,,,,,,,,,,,,1,0,1,0,,,,,,,,,0,27,27,5,,,0.0023732348199700937,0.00596068653248949,1853.629726551826,None,0.006158517575386213,0.012583536146848928,-29.0,135.0,1,0,0,5.673318660650693,click_1,0.006158517575386213,None,1863.1353388209427,None,1863.1353388209427,None,0.005336787464329973,0.010946811416943092,1868.8089188828562,None,0.006070314695534762,0.012400074156175833,-55.0,80.0,1,0,0,0.8220508484810125,click_2,0.006070314695534762,None,1869.3108154051624,None,1869.3108154051624,None,1869.3108154051624,None,0.005348334027075907,0.010958037240925478,,,03_control,001,control,35,m,16,1,alice e filo,2023_Mar_20_1608,CPO_EEG,2020.1.3,143.72566013006596,
stimoli/01.full/F01-Disgust-Face Forward.mp4,disgusted,full,femmina,1,6,720,576,37,,,,,,,,,,,,,,,,,1,0,1,0,,,,,,,,,0,28,28,36,,,0.0014392144257726613,0.005406740372563945,1871.7153378715593,None,0.006121953469119035,0.012481541540182661,-132.0,77.0,1,0,0,1.100850211623765,click_1,0.006121953469119035,None,1877.739615473929,None,1877.739615473929,None,0.0054115193597681355,0.011055541512178024,1878.8407636509182,None,0.006073842811019858,0.012440807851817226,-114.0,76.0,1,0,0,1.0450796904988238,click_2,0.006073842811019858,None,1879.3425533675545,None,1879.3425533675545,None,1879.3425533675545,None,0.005351862138923025,0.010946490681817522,,,03_control,001,control,35,m,16,1,alice e filo,2023_Mar_20_1608,CPO_EEG,2020.1.3,143.72566013006596,
stimoli/01.full/F01-Anger-Face Forward.mp4,angry,full,femmina,1,6,720,576,33,,,,,,,,,,,,,,,,,1,0,1,0,,,,,,,,,0,29,29,32,,,0.004931439099891577,0.008620243941550143,1881.9729111312663,None,0.006148574706458021,0.012569102946144994,-33.0,147.0,1,0,0,1.8256957122503081,click_1,0.006148574706458021,None,1887.9955552162864,None,1887.9955552162864,None,0.005417292639322113,0.011103652177553158,1889.8215318948023,None,0.0060937285525142215,0.012446260392607655,0.0,0.0,1,0,0,0.38990805089997593,click_2,0.0060937285525142215,None,1890.3233427801279,None,1890.3233427801279,None,1890.3233427801279,None,0.005347371810785262,0.010931095268460922,,,03_control,001,control,35,m,16,1,alice e filo,2023_Mar_20_1608,CPO_EEG,2020.1.3,143.72566013006596,
stimoli/01.full/M03-Joy-Face Forward.mp4,happy,full,maschio,4,6,720,576,44,,,,,,,,,,,,,,,,,1,0,1,0,,,,,,,,,0,30,30,43,,,0.00457801817174186,0.00816482840673416,1892.3054642165698,None,0.006067107315175235,0.012413545136951143,78.0,120.0,1,0,0,1.9998088403008296,click_1,0.006067107315175235,None,1898.3293242183936,None,1898.3293242183936,None,0.005350899926270358,0.010986582899931818,1900.329453154969,None,0.006049146002624184,0.012366396691504633,50.0,32.0,1,0,0,1.7001849373846198,click_2,0.006049146002624184,None,1900.8312245895504,None,1900.8312245895504,None,1900.8312245895504,None,0.005305355167365633,0.010874003950448241,,,03_control,001,control,35,m,16,1,alice e filo,2023_Mar_20_1608,CPO_EEG,2020.1.3,143.72566013006596,
stimoli/02.subtle/JM1_Happiness.mp4,happy,subtle,maschio,7,10,1646,926,15,,,,,,,,,,,,,,,,,1,0,1,0,,,,,,,,,0,31,31,14,,,0.004222608677082462,0.007719291606917977,1904.117144330703,None,0.006152744295832235,0.012596365657373099,87.0,55.0,1,0,0,3.895751251198817,click_1,0.006152744295832235,None,1914.544626808798,None,1914.544626808798,None,0.005380407801567344,0.011038542415917618,1918.4406500456098,None,0.006076408710214309,0.012396546037052758,77.0,51.0,1,0,0,1.2124239691183902,click_2,0.006076408710214309,None,1918.9424086506806,None,1918.9424086506806,None,1918.9424086506806,None,0.005305675902491203,0.010853476731426781,,,03_control,001,control,35,m,16,1,alice e filo,2023_Mar_20_1608,CPO_EEG,2020.1.3,143.72566013006596,
stimoli/02.subtle/JM2_Disgust.mp4,disgusted,subtle,maschio,8,10,1646,926,12,,,,,,,,,,,,,,,,,1,0,1,0,,,,,,,,,0,32,32,11,,,0.00436629918840481,0.007950543520564679,1921.7406783988263,None,0.006197326842084294,0.012631326069822535,-80.0,113.0,1,0,0,6.411816363528487,click_1,0.006197326842084294,None,1932.3643458938495,None,1932.3643458938495,None,0.005375275995902484,0.011026354379282566,1938.776444506595,None,0.006052353379345732,0.012368000378046418,-86.0,116.0,1,0,0,7.018253185244248,click_2,0.006052353379345732,None,1939.2782390342945,None,1939.2782390342945,None,1939.2782390342945,None,0.005251471222436521,0.010743784419901203,,,03_control,001,control,35,m,16,1,alice e filo,2023_Mar_20_1608,CPO_EEG,2020.1.3,143.72566013006596,
stimoli/02.subtle/JM1_Surprise.mp4,surprised,subtle,maschio,7,10,1646,926,23,,,,,,,,,,,,,,,,,1,0,1,0,,,,,,,,,0,33,33,22,,,0.005821486349304905,0.009390014536620583,1947.8807814582797,None,0.0061687811867159326,0.012605667052412173,28.0,-145.0,1,0,0,4.209466125605104,click_1,0.0061687811867159326,None,1958.3081766957075,None,1958.3081766957075,None,0.005313694346114062,0.01088234312919667,1962.5178695828981,None,0.006076087971450761,0.012408734070049832,-38.0,52.0,1,0,0,6.244546496069233,click_2,0.006076087971450761,None,1963.019672129045,None,1963.019672129045,None,1963.019672129045,None,0.005187323673453648,0.010637299488735152,,,03_control,001,control,35,m,16,1,alice e filo,2023_Mar_20_1608,CPO_EEG,2020.1.3,143.72566013006596,
stimoli/01.full/F03-Disgust-Face Forward.mp4,disgusted,full,femmina,2,6,720,576,38,,,,,,,,,,,,,,,,,1,0,1,0,,,,,,,,,0,34,34,37,,,0.0014857213973300532,0.005276520842016907,1970.846263982563,None,0.006176799630338792,0.01259861082144198,-37.0,189.0,1,0,0,1.8397924570163013,click_1,0.006176799630338792,None,1976.8700819677397,None,1976.8700819677397,None,0.005384898129705107,0.01105361709051067,1978.7101387126604,None,0.006104312895331532,0.01245042998198187,-48.0,191.0,1,0,0,1.296114390479488,click_2,0.006104312895331532,None,1979.2119101472417,None,1979.2119101472417,None,1979.2119101472417,None,0.00524633942040964,0.010758538359368686,,,03_control,001,control,35,m,16,1,alice e filo,2023_Mar_20_1608,CPO_EEG,2020.1.3,143.72566013006596,
stimoli/01.full/F01-Joy-Face Forward.mp4,happy,full,femmina,1,6,720,576,41,,,,,,,,,,,,,,,,,1,0,1,0,,,,,,,,,0,35,35,40,,,0.0018994730926351622,0.006052385455404874,1982.090146230752,None,0.006135745192295872,0.012572310322866542,127.0,75.0,1,0,0,3.581918986776145,click_1,0.006135745192295872,None,1988.1109579410186,None,1988.1109579410186,None,0.005362125746614765,0.01101224191734218,1991.6931428193857,None,0.006060051087843021,0.012395904566801619,61.0,12.0,1,0,0,1.114626860118733,click_2,0.006060051087843021,None,1992.1949229138881,None,1992.1949229138881,None,1992.1949229138881,None,0.005426594034361187,0.01109306783109787,,,03_control,001,control,35,m,16,1,alice e filo,2023_Mar_20_1608,CPO_EEG,2020.1.3,143.72566013006596,
stimoli/02.subtle/JF2_Disgust.mp4,disgusted,subtle,femmina,6,10,1646,926,10,,,,,,,,,,,,,,,,,1,0,1,0,,,,,,,,,0,36,36,9,,,0.005361548421205953,0.008893191767128883,1994.8943422502707,None,0.006183214383781888,0.012607270742591936,-15.0,-62.0,1,0,0,4.327749075309839,click_1,0.006183214383781888,None,2005.317863617176,None,2005.317863617176,None,0.005478874285472557,0.01123355096206069,2009.645986031228,None,0.006096294451708673,0.012453637358703418,-17.0,-65.0,1,0,0,0.7662755162891699,click_2,0.006096294451708673,None,2010.147774144174,None,2010.147774144174,None,2010.147774144174,None,0.0053489754973270465,0.010962206826661713,,,03_control,001,control,35,m,16,1,alice e filo,2023_Mar_20_1608,CPO_EEG,2020.1.3,143.72566013006596,
stimoli/01.full/M02-Surprise-Face Forward.mp4,surprised,full,maschio,3,6,720,576,51,,,,,,,,,,,,,,,,,1,0,1,0,,,,,,,,,0,37,37,50,,,0.0035227909829700366,0.007200690739409765,2012.507544072574,None,0.006137028147350065,0.01253895360059687,32.0,-211.0,1,0,0,4.369419323549664,click_1,0.006137028147350065,None,2018.5350306561122,None,2018.5350306561122,None,0.005386181077483343,0.01106163553049555,2022.9047392851135,None,0.006082823467295384,0.012427336863765959,38.0,-190.0,1,0,0,0.6199892745316902,click_2,0.006082823467295384,None,2023.406528681011,None,2023.406528681011,None,2023.406528681011,None,0.005338070419384167,0.010927887891739374,,,03_control,001,control,35,m,16,1,alice e filo,2023_Mar_20_1608,CPO_EEG,2020.1.3,143.72566013006596,
stimoli/01.full/F01-Fear-Face Forward.mp4,fear,full,femmina,1,6,720,576,29,,,,,,,,,,,,,,,,,1,0,1,0,,,,,,,,,0,38,38,28,,,0.0063513451132166665,0.01031373925434309,2025.6107741582855,None,0.0061575553663715255,0.012554028275189921,-82.0,-125.0,1,0,0,4.793302161899192,click_1,0.0061575553663715255,None,2031.6339901187093,None,2031.6339901187093,None,0.005381370010582032,0.011000053880707128,2036.4275504744983,None,0.005982432554446859,0.01223489421317936,11.0,-61.0,1,0,0,0.8831196364626521,click_2,0.005982432554446859,None,2036.9284918397898,None,2036.9284918397898,None,2036.9284918397898,None,0.005331655662303092,0.010899983706622152,,,03_control,001,control,35,m,16,1,alice e filo,2023_Mar_20_1608,CPO_EEG,2020.1.3,143.72566013006596,
stimoli/02.subtle/JM1_Disgust.mp4,disgusted,subtle,maschio,7,10,1646,926,11,,,,,,,,,,,,,,,,,1,0,1,0,,,,,,,,,0,39,39,10,,,0.0004183061719231773,0.0039050462328305002,2039.3919549992097,None,0.006179044790769694,0.012595403441082453,-88.0,60.0,1,0,0,2.794469968041085,click_1,0.006179044790769694,None,2049.814309842928,None,2049.814309842928,None,0.005301827051880537,0.010849948619579664,2052.608967442553,None,0.0060783331427956,0.012438241948984796,-81.0,53.0,1,0,0,1.9580625772177882,click_2,0.0060783331427956,None,2053.1108354191965,None,2053.1108354191965,None,2053.1108354191965,None,0.005267828852083767,0.010822044434462441,,,03_control,001,control,35,m,16,1,alice e filo,2023_Mar_20_1608,CPO_EEG,2020.1.3,143.72566013006596,
stimoli/02.subtle/JM2_Sadness.mp4,sad,subtle,maschio,8,10,1646,926,20,,,,,,,,,,,,,,,,,1,0,1,0,,,,,,,,,0,40,40,19,,,0.004729438467620639,0.008275835745735094,2056.667687788744,None,0.00615659315008088,0.012606950000190409,-134.0,-29.0,1,0,0,2.578366495479713,click_1,0.00615659315008088,None,2067.295317998647,None,2067.295317998647,None,0.005389709196606418,0.011031165449821856,2069.87394012211,None,0.0060732013334927615,0.012436638258805033,-109.0,-75.0,1,0,0,1.4982253580383258,click_2,0.0060732013334927615,None,2070.375844983595,None,2070.375844983595,None,2070.375844983595,None,0.005321071312209824,0.010899662964220624,,,03_control,001,control,35,m,16,1,alice e filo,2023_Mar_20_1608,CPO_EEG,2020.1.3,143.72566013006596,
stimoli/01.full/F03-Anger-Face Forward.mp4,angry,full,femmina,2,6,720,576,34,,,,,,,,,,,,,,,,,1,0,1,0,,,,,,,,,0,41,41,33,,,0.004401323742058594,0.008557764220313402,2073.473963151082,None,0.00613863183389185,0.012566216304549016,-37.0,146.0,1,0,0,1.533054590850952,click_1,0.00613863183389185,None,2079.498391500194,None,2079.498391500194,None,0.0053938787859806325,0.011049447501136456,2081.0317305854223,None,0.006063258468202548,0.012386282432998996,-35.0,134.0,1,0,0,0.5641786611886346,click_2,0.006063258468202548,None,2081.5335318486177,None,2081.5335318486177,None,2081.5335318486177,None,0.005293808608257677,0.010859250014618738,,,03_control,001,control,35,m,16,1,alice e filo,2023_Mar_20_1608,CPO_EEG,2020.1.3,143.72566013006596,
stimoli/02.subtle/JM2_Fear.mp4,fear,subtle,maschio,8,10,1646,926,4,,,,,,,,,,,,,,,,,1,0,1,0,,,,,,,,,0,42,42,3,,,0.003160293181281304,0.0067323494840820786,2083.677899116432,None,0.006060051087843021,0.012376981037959922,-73.0,-122.0,1,0,0,2.1880517491117644,click_1,0.006060051087843021,None,2094.3005110635277,None,2094.3005110635277,None,0.0053720686155429576,0.011013204126356868,2096.488902473913,None,0.006082181993406266,0.012436958997568581,13.0,-63.0,1,0,0,0.8290515913104173,click_2,0.006082181993406266,None,2096.990676153662,None,2096.990676153662,None,2096.990676153662,None,0.005347692553186789,0.010959320192341693,,,03_control,001,control,35,m,16,1,alice e filo,2023_Mar_20_1608,CPO_EEG,2020.1.3,143.72566013006596,
stimoli/02.subtle/JF2_Sadness.mp4,sad,subtle,femmina,6,8,1646,926,18,,,,,,,,,,,,,,,,,1,0,1,0,,,,,,,,,0,43,43,17,,,0.0034768934092426207,0.007438646076479927,2099.4067172748073,None,0.00615434798237402,0.012550179417303298,-33.0,-145.0,1,0,0,3.2893099391476426,click_1,0.00615434798237402,None,2107.789320844233,None,2107.789320844233,None,0.005350899926270358,0.010981451094266959,2111.0789117496497,None,0.006105595846747747,0.012460052112146514,-52.0,-35.0,1,0,0,1.0938555628126778,click_2,0.006105595846747747,None,2111.5806796561155,None,2111.5806796561155,None,2111.5806796561155,None,0.0053345423002610914,0.010907360672717914,,,03_control,001,control,35,m,16,1,alice e filo,2023_Mar_20_1608,CPO_EEG,2020.1.3,143.72566013006596,
stimoli/01.full/F03-Neutral-Face Forward.mp4,neutral,full,femmina,2,6,720,576,54,,,,,,,,,,,,,,,,,1,0,1,0,,,,,,,,,0,44,44,53,,,0.006181033368193312,0.010020905687269988,2114.2586284868994,None,0.006161724952107761,0.012581290982780047,0.0,0.0,1,0,0,1.1706363308621803,click_1,0.006161724952107761,None,2120.283768873811,None,2120.283768873811,None,0.005367578287405195,0.010971508221700788,2121.454628117408,None,0.006143442900793161,0.012547934253234416,0.0,0.0,1,0,0,0.07631024577494827,click_2,0.006143442900793161,None,2121.9565018673347,None,2121.9565018673347,None,2121.9565018673347,None,0.005330051975761307,0.010900625184149249,,,03_control,001,control,35,m,16,1,alice e filo,2023_Mar_20_1608,CPO_EEG,2020.1.3,143.72566013006596,
stimoli/01.full/F01-Neutral-Face Forward.mp4,neutral,full,femmina,1,6,720,576,53,,,,,,,,,,,,,,,,,1,0,1,0,,,,,,,,,0,45,45,52,,,0.002252605350804515,0.006414177634724183,2123.6146329541334,None,0.006210477091372013,0.012659550993703306,-11.0,63.0,1,0,0,5.447337427656748,click_1,0.006210477091372013,None,2129.634937578019,None,2129.634937578019,None,0.005379124850151129,0.01101192118221661,2135.082485730378,None,0.006048183789971517,0.012379867675917922,-12.0,59.0,1,0,0,0.9805963284488826,click_2,0.006048183789971517,None,2135.5834267749306,None,2135.5834267749306,None,2135.5834267749306,None,0.005298940410284558,0.010851552306121448,,,03_control,001,control,35,m,16,1,alice e filo,2023_Mar_20_1608,CPO_EEG,2020.1.3,143.72566013006596,
stimoli/01.full/M03-Surprise-Face Forward.mp4,surprised,full,maschio,4,6,720,576,52,,,,,,,,,,,,,,,,,1,0,1,0,,,,,,,,,0,46,46,51,,,0.003993281185103115,0.007658351431018673,2138.1476140960367,None,0.006137348886113614,0.012521633761934936,22.0,-144.0,1,0,0,1.602632230551535,click_1,0.006137348886113614,None,2144.1743639449705,None,2144.1743639449705,None,0.005222604824666632,0.010693428594095167,2145.7772790662166,None,0.006081540519517148,0.012493729580455692,20.0,-143.0,1,0,0,0.5570730371146055,click_2,0.006081540519517148,None,2146.2791146483505,None,2146.2791146483505,None,2146.2791146483505,None,0.0054564226484217215,0.011148555462568766,,,03_control,001,control,35,m,16,1,alice e filo,2023_Mar_20_1608,CPO_EEG,2020.1.3,143.72566013006596,
stimoli/02.subtle/JM1_Fear.mp4,fear,subtle,maschio,7,10,1646,926,3,,,,,,,,,,,,,,,,,1,0,1,0,,,,,,,,,0,47,47,2,,,0.005855805287865223,0.009323301081167301,2148.4204175877167,None,0.006183535118907457,0.012604704836121527,17.0,-101.0,1,0,0,1.5888732226303546,click_1,0.006183535118907457,None,2158.8473782254987,None,2158.8473782254987,None,0.0052649422104877885,0.010773613033961738,2160.4364624935697,None,0.005892946719541214,0.012062978777976241,-51.0,-87.0,1,0,0,1.6232967221876606,click_2,0.005892946719541214,None,2160.938302245293,None,2160.938302245293,None,2160.938302245293,None,0.005322033528500469,0.010913775429798989,,,03_control,001,control,35,m,16,1,alice e filo,2023_Mar_20_1608,CPO_EEG,2020.1.3,143.72566013006596,
stimoli/01.full/F03-Sadness-Face Forward.mp4,sad,full,femmina,2,6,720,576,46,,,,,,,,,,,,,,,,,1,0,1,0,,,,,,,,,0,48,48,45,,,0.0037866940037929453,0.007439896955474978,2164.141397877742,None,0.0061424806917784736,0.012550820898468373,-27.0,-153.0,1,0,0,1.972118588291778,click_1,0.0061424806917784736,None,2170.1678860046704,None,2170.1678860046704,None,0.005374313783249818,0.011010958969563944,2172.1402855592314,None,0.006081540515879169,0.012409375547576929,-9.0,60.0,1,0,0,0.7244805010668642,click_2,0.006081540515879169,None,2172.642050899798,None,2172.642050899798,None,2172.642050899798,None,0.005273922866763314,0.01083808132170816,,,03_control,001,control,35,m,16,1,alice e filo,2023_Mar_20_1608,CPO_EEG,2020.1.3,143.72566013006596,
stimoli/02.subtle/JM2_Happiness.mp4,happy,subtle,maschio,8,10,1646,926,16,,,,,,,,,,,,,,,,,1,0,1,0,,,,,,,,,0,49,49,15,,,0.005166219129023375,0.009145612370048184,2174.952026934272,None,0.006190912088641198,0.012620741723367246,138.0,22.0,1,0,0,5.707940055399376,click_1,0.006190912088641198,None,2185.5783584770325,None,2185.5783584770325,None,0.005385539603594225,0.011045277908124262,2191.28658783788,None,0.006110406917287037,0.01247384383896133,53.0,37.0,1,0,0,1.156603092167643,click_2,0.006110406917287037,None,2191.7883461222154,None,2191.7883461222154,None,2191.7883461222154,None,0.005309204017976299,0.010864381816645619,,,03_control,001,control,35,m,16,1,alice e filo,2023_Mar_20_1608,CPO_EEG,2020.1.3,143.72566013006596,
stimoli/01.full/F03-Fear-Face Forward.mp4,fear,full,femmina,2,6,720,576,30,,,,,,,,,,,,,,,,,1,0,1,0,,,,,,,,,0,50,50,29,,,0.003617344471422257,0.007367410224105697,2194.524904003192,None,0.006092445597460028,0.012425091696059098,-78.0,-106.0,1,0,0,2.6132287642758456,click_1,0.006092445597460028,None,2200.547665478225,None,2200.547665478225,None,0.0052517919648380484,0.010750519915745826,2203.161188359016,None,0.006052032644220162,0.01239590456316364,-83.0,-108.0,1,0,0,0.6477937091767672,click_2,0.006052032644220162,None,2203.662978396387,None,2203.662978396387,None,2203.662978396387,None,0.005337108203093521,0.010929812317044707,,,03_control,001,control,35,m,16,1,alice e filo,2023_Mar_20_1608,CPO_EEG,2020.1.3,143.72566013006596,
stimoli/01.full/M02-Joy-Face Forward.mp4,happy,full,maschio,3,6,720,576,43,,,,,,,,,,,,,,,,,1,0,1,0,,,,,,,,,0,51,51,42,,,0.0019742049917113036,0.005650501061609248,2205.8922346825275,None,0.006092445604735985,0.012433110146957915,82.0,115.0,1,0,0,3.463496516145824,click_1,0.006092445604735985,None,2211.9196478171216,None,2211.9196478171216,None,0.005365653862099862,0.011022505525033921,2215.383492333727,None,0.005998790180456126,0.012264402092114324,59.0,33.0,1,0,0,1.4282448717240186,click_2,0.005998790180456126,None,2215.8852996909372,None,2215.8852996909372,None,2215.8852996909372,None,0.005285790164634818,0.010857646324438974,,,03_control,001,control,35,m,16,1,alice e filo,2023_Mar_20_1608,CPO_EEG,2020.1.3,143.72566013006596,
stimoli/01.full/M02-Sadness-Face Forward.mp4,sad,full,maschio,3,6,720,576,47,,,,,,,,,,,,,,,,,1,0,1,0,,,,,,,,,0,52,52,46,,,6.292874604696408e-05,0.003638513160694856,2218.89685041946,None,0.006152744295832235,0.012569744423672091,-28.0,-149.0,1,0,0,4.732128171934164,click_1,0.006152744295832235,None,2224.562993214473,None,2224.562993214473,None,0.005365653862099862,0.011023146998923039,2229.2953943342327,None,0.006042410514055518,0.01237730177672347,-31.0,-52.0,1,0,0,8.154629913540703,click_2,0.006042410514055518,None,2229.797284762517,None,2229.797284762517,None,2229.797284762517,None,0.005255640815448714,0.010804724599438487,,,03_control,001,control,35,m,16,1,alice e filo,2023_Mar_20_1608,CPO_EEG,2020.1.3,143.72566013006596,
stimoli/02.subtle/JF1_Neutral.mp4,neutral,subtle,femmina,5,10,1646,926,25,,,,,,,,,,,,,,,,,1,0,1,0,,,,,,,,,0,53,53,24,,,0.0022446189796028193,0.006262821490963688,2239.5403199423163,None,0.006151140605652472,0.012562688192701899,-34.0,51.0,1,0,0,4.62065288093072,click_1,0.006151140605652472,None,2250.3632781578854,None,2250.3632781578854,None,0.005374634518375387,0.01101769445813261,2254.9842193820514,None,0.006049787476513302,0.012387244642013684,-27.0,48.0,1,0,0,1.4212723538184946,click_2,0.006049787476513302,None,2255.486013589016,None,2255.486013589016,None,2255.486013589016,None,0.0053614842690876685,0.010971508225338766,,,03_control,001,control,35,m,16,1,alice e filo,2023_Mar_20_1608,CPO_EEG,2020.1.3,143.72566013006596,
stimoli/01.full/M03-Disgust-Face Forward.mp4,disgusted,full,maschio,4,6,720,576,40,,,,,,,,,,,,,,,,,1,0,1,0,,,,,,,,,0,54,54,39,,,0.006404298914276296,0.010272396157233743,2258.498206434513,None,0.006156913892482407,0.012589950903930003,-113.0,81.0,1,0,0,1.1914631157997064,click_1,0.006156913892482407,None,2264.5211965955605,None,2264.5211965955605,None,0.005358276892366121,0.010998770929290913,2265.712930093283,None,0.00607865387792117,0.012405847435729811,-118.0,71.0,1,0,0,0.6059117740260263,click_2,0.00607865387792117,None,2266.214732960165,None,2266.214732960165,None,2266.214732960165,None,0.005339674102287972,0.010950339532428188,,,03_control,001,control,35,m,16,1,alice e filo,2023_Mar_20_1608,CPO_EEG,2020.1.3,143.72566013006596,
stimoli/02.subtle/JM1_Sadness.mp4,sad,subtle,maschio,7,10,1646,926,19,,,,,,,,,,,,,,,,,1,0,1,0,,,,,,,,,0,55,55,18,,,0.0005334510206012055,0.003998701653472381,2268.403395393947,None,0.0061639701161766425,0.01261432696992415,-15.0,-67.0,1,0,0,5.854258691673749,click_1,0.0061639701161766425,None,2278.8256597896216,None,2278.8256597896216,None,0.005376879682444269,0.011009996753273299,2284.6801458843547,None,0.006050428954040399,0.012370245542115299,12.0,-59.0,1,0,0,0.8081163970127818,click_2,0.006050428954040399,None,2285.1820234831357,None,2285.1820234831357,None,2285.1820234831357,None,0.005334221561497543,0.010923076824838063,,,03_control,001,control,35,m,16,1,alice e filo,2023_Mar_20_1608,CPO_EEG,2020.1.3,143.72566013006596,
,,,,,,,,,,,,,,,,,,,,,,,,,1,0,1,0,,,,,,,,,,,,,,,,,,,,,,,,,,,,,,,,,,,,,,,,,,,,,,,,,,,,,,,,,,,03_control,001,control,35,m,16,1,alice e filo,2023_Mar_20_1608,CPO_EEG,2020.1.3,143.72566013006596,
