file,file_emotion,file_emotion_level,file_gender,file_id,file_duration,size_w,size_h,trigger,loop_practice_full.thisRepN,loop_practice_full.thisTrialN,loop_practice_full.thisN,loop_practice_full.thisIndex,loop_istr_practice.thisRepN,loop_istr_practice.thisTrialN,loop_istr_practice.thisN,loop_istr_practice.thisIndex,tuto.thisRepN,tuto.thisTrialN,tuto.thisN,tuto.thisIndex,loop_practice.thisRepN,loop_practice.thisTrialN,loop_practice.thisN,loop_practice.thisIndex,exp_blocks.thisRepN,exp_blocks.thisTrialN,exp_blocks.thisN,exp_blocks.thisIndex,istr_1.thisRepN,istr_1.thisTrialN,istr_1.thisN,istr_1.thisIndex,istr_2.thisRepN,istr_2.thisTrialN,istr_2.thisN,istr_2.thisIndex,exp.thisRepN,exp.thisTrialN,exp.thisN,exp.thisIndex,img_tutorial.started,img_tutorial.stopped,p_port.started,p_port.stopped,mov_target.started,mov_target.stopped,p_port_2.started,p_port_2.stopped,primary.x,primary.y,primary.leftButton,primary.midButton,primary.rightButton,primary.time,primary.clicked_name,primary.started,primary.stopped,img_primary_wheel.started,img_primary_wheel.stopped,click_1.started,click_1.stopped,p_port_4.started,p_port_4.stopped,txt_iwi.started,txt_iwi.stopped,p_port_3.started,p_port_3.stopped,secondary.x,secondary.y,secondary.leftButton,secondary.midButton,secondary.rightButton,secondary.time,secondary.clicked_name,secondary.started,secondary.stopped,img_secondary_wheel.started,img_secondary_wheel.stopped,click_2.started,click_2.stopped,primary_pos.started,primary_pos.stopped,p_port_5.started,p_port_5.stopped,kb_end_practice.keys,kb_end_practice.rt,participant,session,group,age,sex,education,practice,experimenter,date,expName,psychopyVersion,frameRate,
stimoli/03.practice/F04-Anger-Face Forward.mp4,anger,full,femmina,9,6,700,700,57,0,0,0,0,,,,,,,,,0,0,0,0,,,,,,,,,,,,,,,,,150.73142373105293,None,0.001735025281959679,0.00646557115669566,154.4997879930279,None,0.005875094857401564,0.011855551728331193,117.0,158.0,1,0,0,12.368971993911146,click_1,0.005875094857401564,None,160.54274137522862,None,160.54274137522862,None,0.0048237198916467605,0.009904510264277633,172.9123891614081,None,0.005893056114473438,0.012054729230840167,-1.0,-3.0,1,0,0,15.556642746121724,click_2,0.005893056114473438,None,173.41422666207382,None,173.41422666207382,None,173.41422666207382,None,0.004655012377043022,0.009537908193124167,,,04_control,001,control,23,m,16,1,sofia e alice,2023_Mar_24_1133,CPO_EEG,2020.1.3,143.76522232205474,
stimoli/03.practice/F04-Neutral-Face Forward.mp4,neutral,full,femmina,9,6,700,700,62,0,0,0,0,,,,,,,,,0,1,1,5,,,,,,,,,,,,,,,,,,,0.006680464760393079,0.011292017312371172,190.6238550500957,None,0.006217000200194889,0.01265322394829127,,,,,,,,0.006217000200194889,20.00818600292041,196.6450490117777,None,196.6450490117777,None,0.006076517517612956,0.012391502786158526,216.64755685218734,None,0.006155098013550742,0.012540966096821649,-129.0,22.0,1,0,0,3.1361774341185082,click_2,0.006155098013550742,None,217.14940942747853,None,217.14940942747853,None,217.14940942747853,None,0.005467438487357867,0.011163081150698417,,,04_control,001,control,23,m,16,1,sofia e alice,2023_Mar_24_1133,CPO_EEG,2020.1.3,143.76522232205474,
stimoli/03.practice/F04-Joy-Face Forward.mp4,joy,full,femmina,9,6,700,700,59,0,0,0,0,,,,,,,,,0,2,2,2,,,,,,,,,,,,,,,,,,,0.0009598046317478293,0.0050168033958470915,221.88933749264652,None,0.0062288674589581206,0.01266412899713032,172.0,112.0,1,0,0,8.474742624818646,click_1,0.0062288674589581206,None,227.9134042931246,None,227.9134042931246,None,0.005471287327054597,0.011216002709261375,236.38840895984413,None,0.0061178925543572404,0.012469762545151752,166.0,110.0,1,0,0,2.4876965394432773,click_2,0.0061178925543572404,None,236.89023202735734,None,236.89023202735734,None,236.89023202735734,None,0.005405857036748785,0.011057558769607567,,,04_control,001,control,23,m,16,1,sofia e alice,2023_Mar_24_1133,CPO_EEG,2020.1.3,143.76522232205474,
stimoli/03.practice/F04-Sadness-Face Forward.mp4,sadness,full,femmina,9,6,700,700,60,0,0,0,0,,,,,,,,,0,3,3,3,,,,,,,,,,,,,,,,,,,0.000705620782355254,0.004517255955761357,241.00180831362377,None,0.006224056408427714,0.012654827633014065,-42.0,-194.0,1,0,0,4.913109536079901,click_1,0.006224056408427714,None,247.02496807065927,None,247.02496807065927,None,0.005470645854074974,0.011196758506230253,251.93833130948406,None,0.006123345078776765,0.012486120118410327,-37.0,-191.0,1,0,0,1.6026331843195294,click_2,0.006123345078776765,None,252.44007740018515,None,252.44007740018515,None,252.44007740018515,None,0.005446269863568887,0.011102141173978453,,,04_control,001,control,23,m,16,1,sofia e alice,2023_Mar_24_1133,CPO_EEG,2020.1.3,143.76522232205474,
stimoli/03.practice/F04-Surprise-Face Forward.mp4,surprise,full,femmina,9,6,700,700,61,0,0,0,0,,,,,,,,,0,4,4,4,,,,,,,,,,,,,,,,,,,0.003207206826118636,0.006831211018834438,255.69776497824387,None,0.006224377145372273,0.012655469106903183,45.0,-189.0,1,0,0,2.7246613180614077,click_1,0.006224377145372273,None,261.92284710288095,None,261.92284710288095,None,0.005490531531904708,0.011187777878149063,264.6477505771654,None,0.006116609606579004,0.012479063910177501,41.0,-193.0,1,0,0,1.0452078406015062,click_2,0.006116609606579004,None,265.14968686474094,None,265.14968686474094,None,265.14968686474094,None,0.005404253353844979,0.011065897924709134,,,04_control,001,control,23,m,16,1,sofia e alice,2023_Mar_24_1133,CPO_EEG,2020.1.3,143.76522232205474,
stimoli/03.practice/F04-Disgust-Face Forward.mp4,disgust,full,femmina,9,6,700,700,58,0,0,0,0,,,,,,,,,0,5,5,1,,,,,,,,,,,,,,,,,,,0.0043690755919669755,0.008491183910336986,267.80199671437276,None,0.006203208521583292,0.012622112487406412,-106.0,161.0,1,0,0,4.704157902535371,click_1,0.006203208521583292,None,273.8284578144612,None,273.8284578144612,None,0.005376349257858237,0.010978016062836105,278.532853703643,None,0.006113402239861898,0.012491251904975798,4.0,-3.0,1,0,0,0.7244178788914724,click_2,0.006113402239861898,None,279.0346713186318,None,279.0346713186318,None,279.0346713186318,None,0.005440496602204803,0.011108876645266719,,,04_control,001,control,23,m,16,1,sofia e alice,2023_Mar_24_1133,CPO_EEG,2020.1.3,143.76522232205474,
,,,,,,,,,0,0,0,0,,,,,,,,,,,,,,,,,,,,,,,,,,,,,,,,,,,,,,,,,,,,,,,,,,,,,,,,,,,,,,,,,,,,,,,,,n,70.44769072769395,04_control,001,control,23,m,16,1,sofia e alice,2023_Mar_24_1133,CPO_EEG,2020.1.3,143.76522232205474,
,,,,,,,,,,,,,,,,,,,,,,,,,0,0,0,0,0,0,0,0,,,,,,,,,,,,,,,,,,,,,,,,,,,,,,,,,,,,,,,,,,,,,,,,,,,,,,,04_control,001,control,23,m,16,1,sofia e alice,2023_Mar_24_1133,CPO_EEG,2020.1.3,143.76522232205474,
stimoli/01.full/F01-Fear-Face Forward.mp4,fear,full,femmina,1,6,720,576,29,,,,,,,,,,,,,,,,,0,0,0,0,,,,,,,,,0,0,0,28,,,0.004068866021952999,0.00961408316379675,359.09927859897016,None,0.005968108506749559,0.012145497722485743,-123.0,-86.0,1,0,0,9.991973242859785,click_1,0.005968108506749559,None,365.1209341007916,None,365.1209341007916,None,0.00468419941898901,0.009580245440702129,375.11336920452777,None,0.0058218525618940475,0.011916170968106599,-138.0,-22.0,1,0,0,6.725632508847411,click_2,0.0058218525618940475,None,375.61520638445654,None,375.61520638445654,None,375.61520638445654,None,0.004482456021833059,0.009192474746669177,,,04_control,001,control,23,m,16,1,sofia e alice,2023_Mar_24_1133,CPO_EEG,2020.1.3,143.76522232205474,
stimoli/02.subtle/JM2_Anger.mp4,angry,subtle,maschio,8,10,1646,926,8,,,,,,,,,,,,,,,,,0,0,0,0,,,,,,,,,0,1,1,7,,,0.0031461064809263917,0.007026058575320349,383.96279197465356,None,0.006239131034817547,0.012689467198470084,-17.0,94.0,1,0,0,7.122412697068285,click_1,0.006239131034817547,None,394.94715573884605,None,394.94715573884605,None,0.005456854176372872,0.011153138312693045,402.0698038566661,None,0.006128797602286795,0.012489648222071992,-83.0,55.0,1,0,0,6.822851336605709,click_2,0.006128797602286795,None,402.5715553998907,None,402.5715553998907,None,402.5715553998907,None,0.005349086638489098,0.010921887138465536,,,04_control,001,control,23,m,16,1,sofia e alice,2023_Mar_24_1133,CPO_EEG,2020.1.3,143.76522232205474,
stimoli/02.subtle/JF2_Fear.mp4,fear,subtle,femmina,6,10,1646,926,2,,,,,,,,,,,,,,,,,0,0,0,0,,,,,,,,,0,2,2,1,,,7.585423372802325e-05,0.003696651058817224,411.0119638003707,None,0.006215075780346524,0.01265867647362029,35.0,-139.0,1,0,0,7.945481493170519,click_1,0.006215075780346524,None,421.43590108736134,None,421.43590108736134,None,0.005456533438518818,0.011138384423247771,429.3816016437113,None,0.0061332879167821375,0.012498308114118117,-83.0,-58.0,1,0,0,7.56218058632021,click_2,0.0061332879167821375,None,429.883449087215,None,429.883449087215,None,429.883449087215,None,0.005358708739549911,0.010947866812784923,,,04_control,001,control,23,m,16,1,sofia e alice,2023_Mar_24_1133,CPO_EEG,2020.1.3,143.76522232205474,
stimoli/01.full/M02-Disgust-Face Forward.mp4,disgusted,full,maschio,3,6,720,576,39,,,,,,,,,,,,,,,,,0,0,0,0,,,,,,,,,0,3,3,38,,,0.0028584056435647653,0.006909631146299944,439.05418622358775,None,0.006191020526784996,0.012591001025612059,-164.0,104.0,1,0,0,2.2020715101762107,click_1,0.006191020526784996,None,445.07446672709284,None,445.07446672709284,None,0.00540746072147158,0.011061407611123286,447.2767983547483,None,0.006140344125014963,0.012522684104624204,0.0,0.0,1,0,0,0.5432584028203564,click_2,0.006140344125014963,None,447.77859832921786,None,447.77859832921786,None,447.77859832921786,None,0.005419648716269876,0.011097971597337164,,,04_control,001,control,23,m,16,1,sofia e alice,2023_Mar_24_1133,CPO_EEG,2020.1.3,143.76522232205474,
stimoli/02.subtle/JM1_Anger.mp4,angry,subtle,maschio,7,10,1646,926,7,,,,,,,,,,,,,,,,,0,0,0,0,,,,,,,,,0,4,4,6,,,0.001548997986901668,0.005012633819205803,449.937691118992,None,0.006244262822292512,0.012708711401501205,-27.0,136.0,1,0,0,3.2335890246458803,click_1,0.006244262822292512,None,460.3605218643015,None,460.3605218643015,None,0.005457816386297054,0.011173023989613284,463.5943360461242,None,0.006094799510719895,0.01243095340214495,-140.0,25.0,1,0,0,4.2579480162758045,click_2,0.006094799510719895,None,464.09611517270696,None,464.09611517270696,None,464.09611517270696,None,0.005388216517530964,0.011001109107382945,,,04_control,001,control,23,m,16,1,sofia e alice,2023_Mar_24_1133,CPO_EEG,2020.1.3,143.76522232205474,
stimoli/01.full/M03-Anger-Face Forward.mp4,angry,full,maschio,4,6,720,576,36,,,,,,,,,,,,,,,,,0,0,0,0,,,,,,,,,0,5,5,35,,,0.004730706242298766,0.0086690324205847,469.95364680857347,None,0.006199038944032509,0.012623395434275153,-135.0,26.0,1,0,0,2.376233152502209,click_1,0.006199038944032509,None,475.9749344253778,None,475.9749344253778,None,0.005486041216499871,0.011228832177948789,478.3514555994534,None,0.006136495284408738,0.012507609479143866,-134.0,27.0,1,0,0,1.7840418728201257,click_2,0.006136495284408738,None,478.8534047164976,None,478.8534047164976,None,478.8534047164976,None,0.005395914198743412,0.0110168252067524,,,04_control,001,control,23,m,16,1,sofia e alice,2023_Mar_24_1133,CPO_EEG,2020.1.3,143.76522232205474,
stimoli/02.subtle/JM2_Surprise.mp4,surprised,subtle,maschio,8,10,1646,926,24,,,,,,,,,,,,,,,,,0,0,0,0,,,,,,,,,0,6,6,23,,,0.00538933909683692,0.00931676022537431,482.2704920293718,None,0.006232395562619786,0.012677599939706852,48.0,-205.0,1,0,0,1.9442065647108393,click_1,0.006232395562619786,None,493.2550033324542,None,493.2550033324542,None,0.005483475322762388,0.011189381561052869,495.1994536570719,None,0.006101534981098666,0.012440896240150323,-3.0,1.0,1,0,0,1.6792661672152462,click_2,0.006101534981098666,None,495.70127030985077,None,495.70127030985077,None,495.70127030985077,None,0.0053538976890195045,0.010934395870208391,,,04_control,001,control,23,m,16,1,sofia e alice,2023_Mar_24_1133,CPO_EEG,2020.1.3,143.76522232205474,
stimoli/01.full/M02-Neutral-Face Forward.mp4,neutral,full,maschio,3,6,720,576,55,,,,,,,,,,,,,,,,,0,0,0,0,,,,,,,,,0,7,7,54,,,0.0025128118286374956,0.00613938191509078,498.9820114810909,None,0.0062134720965332235,0.012683052463216882,0.0,0.0,1,0,0,7.6312169200164135,click_1,0.0062134720965332235,None,505.00479437248123,None,505.00479437248123,None,0.005387254307606781,0.011007523842636147,512.6362351667285,None,0.006185568001455977,0.012606075651092397,0.0,2.0,1,0,0,11.422506480485936,click_2,0.006185568001455977,None,513.1380181421519,None,513.1380181421519,None,513.1380181421519,None,0.005352614741241268,0.010960054806673725,,,04_control,001,control,23,m,16,1,sofia e alice,2023_Mar_24_1133,CPO_EEG,2020.1.3,143.76522232205474,
stimoli/02.subtle/JM2_Happiness.mp4,happy,subtle,maschio,8,10,1646,926,16,,,,,,,,,,,,,,,,,0,0,0,0,,,,,,,,,0,8,8,15,,,0.00408843096192868,0.00810469616226328,526.1677700009814,None,0.006231754089640162,0.012669902258494403,126.0,79.0,1,0,0,2.801561153908551,click_1,0.006231754089640162,None,536.7899010912106,None,536.7899010912106,None,0.005454929755615012,0.011141912526909437,539.5916928548195,None,0.006110194873144792,0.012481629803914984,85.0,-53.0,1,0,0,8.049749472548683,click_2,0.006110194873144792,None,540.0935172052796,None,540.0935172052796,None,540.0935172052796,None,0.005343313378034509,0.010914830931142205,,,04_control,001,control,23,m,16,1,sofia e alice,2023_Mar_24_1133,CPO_EEG,2020.1.3,143.76522232205474,
stimoli/02.subtle/JF1_Anger.mp4,angry,subtle,femmina,5,10,1646,926,5,,,,,,,,,,,,,,,,,0,0,0,0,,,,,,,,,0,9,9,4,,,0.002678472344086913,0.006398376815923257,549.7651142367968,None,0.0062288674589581206,0.012693316039076308,-50.0,-80.0,1,0,0,15.451726557834263,click_1,0.0062288674589581206,None,560.5908621467161,None,560.5908621467161,None,0.005434723341750214,0.011076802972638689,576.0427814673185,None,0.006119816974205605,0.01246880033522757,-12.0,64.0,1,0,0,9.78595602956102,click_2,0.006119816974205605,None,576.5445856113656,None,576.5445856113656,None,576.5445856113656,None,0.005346841481696174,0.010923490822278836,,,04_control,001,control,23,m,16,1,sofia e alice,2023_Mar_24_1133,CPO_EEG,2020.1.3,143.76522232205474,
stimoli/02.subtle/JF1_Surprise.mp4,surprised,subtle,femmina,5,10,1646,926,21,,,,,,,,,,,,,,,,,0,0,0,0,,,,,,,,,0,10,10,20,,,0.005998257758619729,0.009915415313116682,587.9425047356772,None,0.0061987182079974446,0.012607358597961138,-48.0,78.0,1,0,0,9.638452419670102,click_1,0.0061987182079974446,None,598.7694502765071,None,598.7694502765071,None,0.0054186865063456935,0.011060766137234168,608.4081268911432,None,0.006012690910210949,0.012264170308299072,-52.0,-38.0,1,0,0,5.700576556327178,click_2,0.006012690910210949,None,608.9099133946711,None,608.9099133946711,None,608.9099133946711,None,0.005366085683817801,0.010944017971269204,,,04_control,001,control,23,m,16,1,sofia e alice,2023_Mar_24_1133,CPO_EEG,2020.1.3,143.76522232205474,
stimoli/02.subtle/JF1_Disgust.mp4,disgusted,subtle,femmina,5,10,1646,926,9,,,,,,,,,,,,,,,,,0,0,0,0,,,,,,,,,0,11,11,8,,,0.003064318617362005,0.007258592697326094,616.2190474632607,None,0.006237848087948805,0.01268561835786386,-154.0,107.0,1,0,0,2.132404928825963,click_1,0.006237848087948805,None,627.0412149891808,None,627.0412149891808,None,0.0054738532217015745,0.011170778831910866,629.1738296798212,None,0.006140985597994586,0.012500553270911041,6.0,-1.0,1,0,0,0.9403519508168756,click_2,0.006140985597994586,None,629.675637031235,None,629.675637031235,None,629.675637031235,None,0.0055389627759723226,0.011328902035529609,,,04_control,001,control,23,m,16,1,sofia e alice,2023_Mar_24_1133,CPO_EEG,2020.1.3,143.76522232205474,
stimoli/01.full/M03-Neutral-Face Forward.mp4,neutral,full,maschio,4,6,720,576,56,,,,,,,,,,,,,,,,,0,0,0,0,,,,,,,,,0,12,12,55,,,0.001975096717615088,0.005630533109069802,632.2249990538267,None,0.006196152313350467,0.01261890511977981,0.0,0.0,1,0,0,0.7454639809457149,click_1,0.006196152313350467,None,638.2526151268412,None,638.2526151268412,None,0.005480909429024905,0.011166288517415524,638.998281492657,None,0.006113081502917339,0.01248836527520325,0.0,0.0,1,0,0,0.3271790371618408,click_2,0.006113081502917339,None,639.5000538837685,None,639.5000538837685,None,639.5000538837685,None,0.0054639103827867075,0.011131007478070387,,,04_control,001,control,23,m,16,1,sofia e alice,2023_Mar_24_1133,CPO_EEG,2020.1.3,143.76522232205474,
stimoli/01.full/M03-Surprise-Face Forward.mp4,surprised,full,maschio,4,6,720,576,52,,,,,,,,,,,,,,,,,0,0,0,0,,,,,,,,,0,13,13,51,,,0.005533830987587862,0.009305694808062981,641.4258982712927,None,0.006246187241231382,0.012717371291728341,55.0,-198.0,1,0,0,2.6690539100700335,click_1,0.006246187241231382,None,647.4494515722836,None,647.4494515722836,None,0.005474815431625757,0.011175910619385832,650.118716527114,None,0.00612174139405397,0.012477780962399265,3.0,1.0,1,0,0,2.9198122920424794,click_2,0.00612174139405397,None,650.6205136149529,None,650.6205136149529,None,650.6205136149529,None,0.005363840526115382,0.010955243756143318,,,04_control,001,control,23,m,16,1,sofia e alice,2023_Mar_24_1133,CPO_EEG,2020.1.3,143.76522232205474,
stimoli/02.subtle/JF1_Happiness.mp4,happy,subtle,femmina,5,10,1646,926,13,,,,,,,,,,,,,,,,,0,0,0,0,,,,,,,,,0,14,14,12,,,0.003729205835952598,0.007262120800987759,655.1473252802753,None,0.00623079187971598,0.012671505942307704,176.0,106.0,1,0,0,2.4738788808344907,click_1,0.00623079187971598,None,665.9712671217276,None,665.9712671217276,None,0.005466155540489126,0.011137742949358653,668.4453769329994,None,0.006096403193623701,0.012406256674694305,191.0,-32.0,1,0,0,7.074157536896564,click_2,0.006096403193623701,None,668.94728339206,None,668.94728339206,None,668.94728339206,None,0.005354859898943687,0.01095813038682536,,,04_control,001,control,23,m,16,1,sofia e alice,2023_Mar_24_1133,CPO_EEG,2020.1.3,143.76522232205474,
stimoli/01.full/F01-Anger-Face Forward.mp4,angry,full,femmina,1,6,720,576,33,,,,,,,,,,,,,,,,,0,0,0,0,,,,,,,,,0,15,15,32,,,0.0015985518102752394,0.005893857956834836,677.6179550981424,None,0.0062134720965332235,0.01268337320016144,-32.0,137.0,1,0,0,7.324871977938528,click_1,0.0062134720965332235,None,683.6402530356127,None,683.6402530356127,None,0.005450760178064229,0.011122347587843251,690.965292758855,None,0.006111477820013533,0.012479063911086996,-99.0,16.0,1,0,0,1.4885182669186179,click_2,0.006111477820013533,None,691.4662209709213,None,691.4662209709213,None,691.4662209709213,None,0.005386612834627158,0.010980581957483082,,,04_control,001,control,23,m,16,1,sofia e alice,2023_Mar_24_1133,CPO_EEG,2020.1.3,143.76522232205474,
stimoli/01.full/M02-Fear-Face Forward.mp4,fear,full,maschio,3,6,720,576,31,,,,,,,,,,,,,,,,,0,0,0,0,,,,,,,,,0,16,16,30,,,0.0018484057136447518,0.005377792574108753,694.5474735247872,None,0.006199680417921627,0.01262981016861886,-142.0,-29.0,1,0,0,1.505100355311697,click_1,0.006199680417921627,None,700.5693657303073,None,700.5693657303073,None,0.005500474369000585,0.011216964919185557,702.0747252408892,None,0.0061486832792070345,0.012538400203084166,22.0,-96.0,1,0,0,5.289503377678557,click_2,0.0061486832792070345,None,702.5765447802978,None,702.5765447802978,None,702.5765447802978,None,0.005364482000913995,0.01100656163180247,,,04_control,001,control,23,m,16,1,sofia e alice,2023_Mar_24_1133,CPO_EEG,2020.1.3,143.76522232205474,
stimoli/01.full/F03-Surprise-Face Forward.mp4,surprised,full,femmina,2,6,720,576,50,,,,,,,,,,,,,,,,,0,0,0,0,,,,,,,,,0,17,17,49,,,0.003326360517348803,0.006871142740237701,709.5141634127922,None,0.006220528304766049,0.012648733634705422,35.0,-189.0,1,0,0,4.864610295264356,click_1,0.006220528304766049,None,715.5395923821179,None,715.5395923821179,None,0.005460382279125042,0.011151534628879745,720.4044326456096,None,0.006111798556958092,0.012464310021641722,4.0,6.0,1,0,0,0.7943352763568328,click_2,0.006111798556958092,None,720.9062646937509,None,720.9062646937509,None,720.9062646937509,None,0.005423818293820659,0.011073274869886518,,,04_control,001,control,23,m,16,1,sofia e alice,2023_Mar_24_1133,CPO_EEG,2020.1.3,143.76522232205474,
stimoli/02.subtle/JM2_Fear.mp4,fear,subtle,maschio,8,10,1646,926,4,,,,,,,,,,,,,,,,,0,0,0,0,,,,,,,,,0,18,18,3,,,0.005546660457184771,0.009256301354071184,723.3128597463228,None,0.006206415889209893,0.012673751099100627,-36.0,-197.0,1,0,0,4.815942988406277,click_1,0.006206415889209893,None,733.9385805219154,None,733.9385805219154,None,0.005454288282635389,0.011136460003399407,738.7547265366657,None,0.006051500053217751,0.012362315744212538,3.0,2.0,1,0,0,0.5362673045483461,click_2,0.006051500053217751,None,739.2565306807119,None,739.2565306807119,None,739.2565306807119,None,0.005450118704175111,0.011158911573147634,,,04_control,001,control,23,m,16,1,sofia e alice,2023_Mar_24_1133,CPO_EEG,2020.1.3,143.76522232205474,
stimoli/01.full/M03-Fear-Face Forward.mp4,fear,full,maschio,4,6,720,576,32,,,,,,,,,,,,,,,,,0,0,0,0,,,,,,,,,0,19,19,31,,,0.006420828386580979,0.01016510884892341,741.4109917115211,None,0.006224697882316832,0.012684335411904613,-78.0,120.0,1,0,0,7.533690826480779,click_1,0.006224697882316832,None,747.437836412726,None,747.437836412726,None,0.005484758270540624,0.01117494840946165,754.9717219263957,None,0.006120779185039282,0.012472007702854171,0.0,-5.0,1,0,0,0.49449295052727393,click_2,0.006120779185039282,None,755.4735658417958,None,755.4735658417958,None,755.4735658417958,None,0.005460061542180483,0.011127800111353281,,,04_control,001,control,23,m,16,1,sofia e alice,2023_Mar_24_1133,CPO_EEG,2020.1.3,143.76522232205474,
stimoli/02.subtle/JF2_Surprise.mp4,surprised,subtle,femmina,6,10,1646,926,22,,,,,,,,,,,,,,,,,0,0,0,0,,,,,,,,,0,20,20,21,,,0.006378170402058458,0.010061190150736365,757.5725798329731,None,0.006218283147973125,0.012647450688746176,-57.0,84.0,1,0,0,9.632217939318252,click_1,0.006218283147973125,None,767.9948380632377,None,767.9948380632377,None,0.005479305746121099,0.0111656470444359,777.627299441725,None,0.006129118339231354,0.012523646313638892,26.0,143.0,1,0,0,0.9197282590212126,click_2,0.006129118339231354,None,778.1291350179708,None,778.1291350179708,None,778.1291350179708,None,0.005426704923593206,0.011080972550189472,,,04_control,001,control,23,m,16,1,sofia e alice,2023_Mar_24_1133,CPO_EEG,2020.1.3,143.76522232205474,
stimoli/02.subtle/JF1_Neutral.mp4,neutral,subtle,femmina,5,10,1646,926,25,,,,,,,,,,,,,,,,,0,0,0,0,,,,,,,,,0,21,21,24,,,0.00526072367119923,0.009259989826205128,780.6684778669205,None,0.006206095152265334,0.012671826679252263,79.0,-121.0,1,0,0,10.746411437215102,click_1,0.006206095152265334,None,791.4912862248066,None,791.4912862248066,None,0.005426384186648647,0.011077123709583248,802.2378682939561,None,0.006124628025645507,0.012463668548662099,-2.0,4.0,1,0,0,0.6408537754878125,click_2,0.006124628025645507,None,802.7396201579177,None,802.7396201579177,None,802.7396201579177,None,0.0054430624968517805,0.011108876645266719,,,04_control,001,control,23,m,16,1,sofia e alice,2023_Mar_24_1133,CPO_EEG,2020.1.3,143.76522232205474,
stimoli/01.full/F03-Sadness-Face Forward.mp4,sad,full,femmina,2,6,720,576,46,,,,,,,,,,,,,,,,,0,0,0,0,,,,,,,,,0,22,22,45,,,0.005375066312808485,0.009106517306463502,804.9929004927153,None,0.006152852856757818,0.012508571688158554,-23.0,152.0,1,0,0,0.9893178635602453,click_1,0.006152852856757818,None,811.0155868423535,None,811.0155868423535,None,0.0054581371223321185,0.011119781694105768,812.0051981800116,None,0.006146117385469552,0.012511458318840596,-17.0,-99.0,1,0,0,5.812277929914671,click_2,0.006146117385469552,None,812.5070161157373,None,812.5070161157373,None,812.5070161157373,None,0.005388537254475523,0.011012655630111112,,,04_control,001,control,23,m,16,1,sofia e alice,2023_Mar_24_1133,CPO_EEG,2020.1.3,143.76522232205474,
stimoli/01.full/F01-Surprise-Face Forward.mp4,surprised,full,femmina,1,6,720,576,49,,,,,,,,,,,,,,,,,0,0,0,0,,,,,,,,,0,23,23,48,,,0.00564352294713899,0.009700521711238252,819.9182855852578,None,0.006237206614059687,0.012684976883974741,38.0,-184.0,1,0,0,1.6583919800423246,click_1,0.006237206614059687,None,825.9393842881345,None,825.9393842881345,None,0.0055819414965299075,0.011386634644622973,827.5981075892078,None,0.006104742349634762,0.012465272231565905,-3.0,-5.0,1,0,0,0.4735321644402575,click_2,0.006104742349634762,None,828.0999194309361,None,828.0999194309361,None,828.0999194309361,None,0.005442421022962662,0.011113046221908007,,,04_control,001,control,23,m,16,1,sofia e alice,2023_Mar_24_1133,CPO_EEG,2020.1.3,143.76522232205474,
stimoli/01.full/M02-Joy-Face Forward.mp4,happy,full,maschio,3,6,720,576,43,,,,,,,,,,,,,,,,,0,0,0,0,,,,,,,,,0,24,24,42,,,0.0026725387151600444,0.006527473346068291,830.1751309086922,None,0.006208661046002817,0.012656110579882807,145.0,25.0,1,0,0,5.05964227592176,click_1,0.006208661046002817,None,836.2004950891996,None,836.2004950891996,None,0.005417403559476952,0.011073916342866141,841.2603355804149,None,0.006126552445493871,0.012485799381465768,188.0,112.0,1,0,0,1.407473229709467,click_2,0.006126552445493871,None,841.7620816711151,None,841.7620816711151,None,841.7620816711151,None,0.005426063450613583,0.011075199289734883,,,04_control,001,control,23,m,16,1,sofia e alice,2023_Mar_24_1133,CPO_EEG,2020.1.3,143.76522232205474,
stimoli/02.subtle/JM2_Neutral.mp4,neutral,subtle,maschio,8,10,1646,926,28,,,,,,,,,,,,,,,,,0,0,0,0,,,,,,,,,0,25,25,27,,,0.005811428619381331,0.009431904708435468,844.7745548013963,None,0.006205774415320775,0.012656431315917871,-13.0,-66.0,1,0,0,2.5088237878881046,click_1,0.006205774415320775,None,855.757266771483,None,855.757266771483,None,0.005438572183265933,0.011098613070316787,858.266277548878,None,0.006144192965621187,0.0125008740078556,2.0,-1.0,1,0,0,1.4422908042861309,click_2,0.006144192965621187,None,858.7680364690477,None,858.7680364690477,None,858.7680364690477,None,0.005430233028164366,0.01112074390402995,,,04_control,001,control,23,m,16,1,sofia e alice,2023_Mar_24_1133,CPO_EEG,2020.1.3,143.76522232205474,
stimoli/02.subtle/JF2_Anger.mp4,angry,subtle,femmina,6,9,1646,926,6,,,,,,,,,,,,,,,,,0,0,0,0,,,,,,,,,0,26,26,5,,,0.005395112356382015,0.00954769066265726,861.8436270576058,None,0.006195831577315403,0.012625640591977572,-21.0,100.0,1,0,0,4.265071258077114,click_1,0.006195831577315403,None,871.344537949889,None,871.344537949889,None,0.005469362907206232,0.011198362189134059,875.6098953051196,None,0.006115647397564317,0.012464630758586281,-93.0,14.0,1,0,0,2.9407086100482047,click_2,0.006115647397564317,None,876.1116830915935,None,876.1116830915935,None,876.1116830915935,None,0.005417403558567457,0.011045370773899776,,,04_control,001,control,23,m,16,1,sofia e alice,2023_Mar_24_1133,CPO_EEG,2020.1.3,143.76522232205474,
stimoli/02.subtle/JF1_Sadness.mp4,sad,subtle,femmina,5,10,1646,926,17,,,,,,,,,,,,,,,,,0,0,0,0,,,,,,,,,0,27,27,16,,,0.001758759801305132,0.005344275587958691,880.6546852257761,None,0.006224377145372273,0.012663166787206137,-24.0,-135.0,1,0,0,4.0837911850003366,click_1,0.006224377145372273,None,891.4756345936357,None,891.4756345936357,None,0.005457816385387559,0.011165005570546782,895.5596916693767,None,0.006111798556048598,0.012513062001744402,-53.0,-78.0,1,0,0,1.0729897345008794,click_2,0.006111798556048598,None,896.0615246797279,None,896.0615246797279,None,896.0615246797279,None,0.005410988825133245,0.011048257405491313,,,04_control,001,control,23,m,16,1,sofia e alice,2023_Mar_24_1133,CPO_EEG,2020.1.3,143.76522232205474,
stimoli/01.full/F03-Neutral-Face Forward.mp4,neutral,full,femmina,2,6,720,576,54,,,,,,,,,,,,,,,,,0,0,0,0,,,,,,,,,0,28,28,53,,,0.0003507256024022354,0.003965749167036847,898.738237782657,None,0.006196793787239585,0.012631093115487602,23.0,-90.0,1,0,0,8.015081361283592,click_1,0.006196793787239585,None,904.7649638112753,None,904.7649638112753,None,0.005437930709376815,0.011136460003399407,912.7802895739396,None,0.006113081503826834,0.012499911797021923,0.0,5.0,1,0,0,0.5781260123258107,click_2,0.006113081503826834,None,913.2821687703781,None,913.2821687703781,None,913.2821687703781,None,0.005427025660537765,0.01112106464097451,,,04_control,001,control,23,m,16,1,sofia e alice,2023_Mar_24_1133,CPO_EEG,2020.1.3,143.76522232205474,
stimoli/02.subtle/JM1_Surprise.mp4,surprised,subtle,maschio,7,10,1646,926,23,,,,,,,,,,,,,,,,,0,0,0,0,,,,,,,,,0,29,29,22,,,0.004040961927785247,0.007795826702022168,915.4673467568064,None,0.006192944945723866,0.012646809213947563,24.0,107.0,1,0,0,11.791864962144246,click_1,0.006192944945723866,None,925.892002173312,None,925.892002173312,None,0.005358067266570288,0.0109780160637456,937.6841269321976,None,0.006052462263141933,0.012355259535979712,-35.0,54.0,1,0,0,8.676590581501841,click_2,0.006052462263141933,None,938.1858470432244,None,938.1858470432244,None,938.1858470432244,None,0.005338823062629672,0.010919641980763117,,,04_control,001,control,23,m,16,1,sofia e alice,2023_Mar_24_1133,CPO_EEG,2020.1.3,143.76522232205474,
stimoli/01.full/M03-Joy-Face Forward.mp4,happy,full,maschio,4,6,720,576,44,,,,,,,,,,,,,,,,,0,0,0,0,,,,,,,,,0,30,30,43,,,0.0034801537740349886,0.007284412003173202,948.4767651905722,None,0.0062080195730231935,0.012623395435184648,92.0,120.0,1,0,0,4.021328350368094,click_1,0.0062080195730231935,None,954.502582251328,None,954.502582251328,None,0.005456212702483754,0.0111672507282492,958.5241796998025,None,0.0061182132913017995,0.012447631712348084,174.0,102.0,1,0,0,1.1358057002616988,click_2,0.0061182132913017995,None,959.0259690899602,None,959.0259690899602,None,959.0259690899602,None,0.005422214610007359,0.011071991922108282,,,04_control,001,control,23,m,16,1,sofia e alice,2023_Mar_24_1133,CPO_EEG,2020.1.3,143.76522232205474,
stimoli/01.full/F03-Anger-Face Forward.mp4,angry,full,femmina,2,6,720,576,34,,,,,,,,,,,,,,,,,0,0,0,0,,,,,,,,,0,31,31,33,,,0.0006289647071753279,0.0049242708537349245,961.7592309631527,None,0.006185247265420912,0.012640715216548415,-21.0,141.0,1,0,0,3.6446423176175813,click_1,0.006185247265420912,None,967.7859525014574,None,967.7859525014574,None,0.005465514067509503,0.011179117987012432,971.4308424278224,None,0.006053103737940546,0.01232222365524649,3.0,0.0,1,0,0,9.010969195803227,click_2,0.006053103737940546,None,971.9326273276665,None,971.9326273276665,None,971.9326273276665,None,0.005374104101974808,0.010956205966976995,,,04_control,001,control,23,m,16,1,sofia e alice,2023_Mar_24_1133,CPO_EEG,2020.1.3,143.76522232205474,
stimoli/01.full/F03-Disgust-Face Forward.mp4,disgusted,full,femmina,2,6,720,576,38,,,,,,,,,,,,,,,,,0,0,0,0,,,,,,,,,0,32,32,37,,,0.0024885962056941935,0.006097846508964722,982.5519112380371,None,0.0062285467220135615,0.012667015627812361,-76.0,120.0,1,0,0,4.4670847149063775,click_1,0.0062285467220135615,None,988.5792742497806,None,988.5792742497806,None,0.005471287327964092,0.0111672507282492,993.0465786693403,None,0.00613425012670632,0.012539683149952907,-21.0,144.0,1,0,0,2.536591890107047,click_2,0.00613425012670632,None,993.5484835247171,None,993.5484835247171,None,993.5484835247171,None,0.0053689723144998425,0.010926377452051383,,,04_control,001,control,23,m,16,1,sofia e alice,2023_Mar_24_1133,CPO_EEG,2020.1.3,143.76522232205474,
stimoli/01.full/M03-Disgust-Face Forward.mp4,disgusted,full,maschio,4,6,720,576,40,,,,,,,,,,,,,,,,,0,0,0,0,,,,,,,,,0,33,33,39,,,0.0067521494174798136,0.010358833827012859,997.6754381744686,None,0.006237527351004246,0.012711277295238688,-120.0,66.0,1,0,0,1.89540711432619,click_1,0.006237527351004246,None,1003.6980889223305,None,1003.6980889223305,None,0.005485720481374301,0.011192588929588965,1005.5936814224797,None,0.0061387404402921675,0.012527815891189675,-7.0,1.0,1,0,0,0.794307051524811,click_2,0.0061387404402921675,None,1006.095503207046,None,1006.095503207046,None,1006.095503207046,None,0.005411309560258815,0.011046332983823959,,,04_control,001,control,23,m,16,1,sofia e alice,2023_Mar_24_1133,CPO_EEG,2020.1.3,143.76522232205474,
stimoli/01.full/M03-Sadness-Face Forward.mp4,sad,full,maschio,4,6,720,576,48,,,,,,,,,,,,,,,,,0,0,0,0,,,,,,,,,0,34,34,47,,,0.002581449485660414,0.00661920404581906,1008.4917718201996,None,0.006219886830876931,0.012644243321119575,-19.0,-138.0,1,0,0,1.5887488124717493,click_1,0.006219886830876931,None,1014.5148513930553,None,1014.5148513930553,None,0.005495663318470179,0.011246472698076104,1016.1038888685753,None,0.006145475911580434,0.012530702521871717,2.0,3.0,1,0,0,1.2262848873351686,click_2,0.006145475911580434,None,1016.6056426569567,None,1016.6056426569567,None,1016.6056426569567,None,0.00540553630071372,0.011073916342866141,,,04_control,001,control,23,m,16,1,sofia e alice,2023_Mar_24_1133,CPO_EEG,2020.1.3,143.76522232205474,
stimoli/02.subtle/JF2_Happiness.mp4,happy,subtle,femmina,6,9,1646,926,14,,,,,,,,,,,,,,,,,0,0,0,0,,,,,,,,,0,35,35,13,,,0.003989323316091031,0.007538595852565777,1019.4386026527491,None,0.006215075780346524,0.012691712355263007,173.0,107.0,1,0,0,7.512668138206209,click_1,0.006215075780346524,None,1028.9450821759547,None,1028.9450821759547,None,0.005447873546472692,0.01115313831178355,1036.4579751506017,None,0.006129759813120472,0.012518514527073421,132.0,-36.0,1,0,0,1.1217725065762352,click_2,0.006129759813120472,None,1036.9597526735006,None,1036.9597526735006,None,1036.9597526735006,None,0.005405215563769161,0.011033824252081104,,,04_control,001,control,23,m,16,1,sofia e alice,2023_Mar_24_1133,CPO_EEG,2020.1.3,143.76522232205474,
stimoli/02.subtle/JM1_Disgust.mp4,disgusted,subtle,maschio,7,10,1646,926,11,,,,,,,,,,,,,,,,,0,0,0,0,,,,,,,,,0,36,36,10,,,0.0010516957026993623,0.004419431255882955,1039.6909512473767,None,0.006224377144462778,0.012690429407484771,-53.0,81.0,1,0,0,8.746948991955833,click_1,0.006224377144462778,None,1050.112153291624,None,1050.112153291624,None,0.005537038355214463,0.011336920452777122,1058.8594143604087,None,0.0061201377102406695,0.012506647267400695,-84.0,-55.0,1,0,0,2.83659811239977,click_2,0.0061201377102406695,None,1059.3613298000973,None,1059.3613298000973,None,1059.3613298000973,None,0.005383405467000557,0.010995656583872915,,,04_control,001,control,23,m,16,1,sofia e alice,2023_Mar_24_1133,CPO_EEG,2020.1.3,143.76522232205474,
stimoli/02.subtle/JF2_Disgust.mp4,disgusted,subtle,femmina,6,10,1646,926,10,,,,,,,,,,,,,,,,,0,0,0,0,,,,,,,,,0,37,37,9,,,0.005547462299546169,0.00948835437066009,1063.8036411315334,None,0.006208981782947376,0.01267824141359597,-103.0,18.0,1,0,0,9.917168138527813,click_1,0.006208981782947376,None,1074.2294457477046,None,1074.2294457477046,None,0.005428629343441571,0.011075199288825388,1084.1467822730092,None,0.006125590235569689,0.012483554224672844,-31.0,50.0,1,0,0,3.449544585932017,click_2,0.006125590235569689,None,1084.648540230969,None,1084.648540230969,None,1084.648540230969,None,0.0053385023265946074,0.010908736932833563,,,04_control,001,control,23,m,16,1,sofia e alice,2023_Mar_24_1133,CPO_EEG,2020.1.3,143.76522232205474,
stimoli/02.subtle/JM1_Fear.mp4,fear,subtle,maschio,7,10,1646,926,3,,,,,,,,,,,,,,,,,0,0,0,0,,,,,,,,,0,38,38,2,,,0.0006076357149140676,0.004229715487781505,1089.7014977121844,None,0.006192303472744243,0.012619867329703993,44.0,-202.0,1,0,0,2.1811594760702064,click_1,0.006192303472744243,None,1100.1230330018834,None,1100.1230330018834,None,0.005467438488267362,0.011159873783981311,1102.3044246913387,None,0.0061294390752664185,0.012492534851844539,-54.0,-81.0,1,0,0,3.90987137816046,click_2,0.0061294390752664185,None,1102.8063035670411,None,1102.8063035670411,None,1102.8063035670411,None,0.005401045987127873,0.01104601224869839,,,04_control,001,control,23,m,16,1,sofia e alice,2023_Mar_24_1133,CPO_EEG,2020.1.3,143.76522232205474,
stimoli/02.subtle/JM1_Sadness.mp4,sad,subtle,maschio,7,10,1646,926,19,,,,,,,,,,,,,,,,,0,0,0,0,,,,,,,,,0,39,39,18,,,0.00019019687442778377,0.004212556073071028,1108.3273769317166,None,0.0062137928334777826,0.012688825724580965,-96.0,-22.0,1,0,0,6.125785243673818,click_1,0.0062137928334777826,None,1118.7538060222805,None,1118.7538060222805,None,0.005458457860186172,0.011140950317894749,1124.8797910849298,None,0.006089026249355811,0.01241138846216927,-23.0,-100.0,1,0,0,4.041817653477665,click_2,0.006089026249355811,None,1125.3815993985545,None,1125.3815993985545,None,1125.3815993985545,None,0.0053599916864186525,0.010982506378240942,,,04_control,001,control,23,m,16,1,sofia e alice,2023_Mar_24_1133,CPO_EEG,2020.1.3,143.76522232205474,
stimoli/01.full/F01-Sadness-Face Forward.mp4,sad,full,femmina,1,6,720,576,45,,,,,,,,,,,,,,,,,0,0,0,0,,,,,,,,,0,40,40,44,,,0.004218650069560681,0.00788819887657155,1131.0301309696315,None,0.006225339355296455,0.012683693937106,-40.0,-195.0,1,0,0,5.052583502200832,click_1,0.006225339355296455,None,1137.0515991612092,None,1137.0515991612092,None,0.0054090644043753855,0.011068143081502058,1142.104406216904,None,0.006123345078776765,0.01248130906787992,-78.0,-53.0,1,0,0,5.603137382441673,click_2,0.006123345078776765,None,1142.6061782872785,None,1142.6061782872785,None,1142.6061782872785,None,0.0053741041010653134,0.010996939528922667,,,04_control,001,control,23,m,16,1,sofia e alice,2023_Mar_24_1133,CPO_EEG,2020.1.3,143.76522232205474,
stimoli/01.full/M02-Surprise-Face Forward.mp4,surprised,full,maschio,3,6,720,576,51,,,,,,,,,,,,,,,,,0,0,0,0,,,,,,,,,0,41,41,50,,,0.00021665765416400973,0.004337803761700343,1149.800218870737,None,0.006209623255926999,0.012677920675741916,33.0,-142.0,1,0,0,10.565330541640833,click_1,0.006209623255926999,None,1155.826344480217,None,1155.826344480217,None,0.005456854176372872,0.011149930945975939,1166.391905631559,None,0.006129759813120472,0.012504402111517265,-53.0,-40.0,1,0,0,8.990067104537047,click_2,0.006129759813120472,None,1166.8936395342644,None,1166.8936395342644,None,1166.8936395342644,None,0.005346520744751615,0.01092413229525846,,,04_control,001,control,23,m,16,1,sofia e alice,2023_Mar_24_1133,CPO_EEG,2020.1.3,143.76522232205474,
stimoli/02.subtle/JM1_Happiness.mp4,happy,subtle,maschio,7,10,1646,926,15,,,,,,,,,,,,,,,,,0,0,0,0,,,,,,,,,0,42,42,14,,,0.006731301530635392,0.010127903388820414,1177.4875480383416,None,0.006189416842971696,0.012603509758264408,-54.0,86.0,1,0,0,9.269483953862618,click_1,0.006189416842971696,None,1187.9096840679167,None,1187.9096840679167,None,0.005472570274832833,0.011156024942465592,1197.1794374406236,None,0.006129759813120472,0.012493817799622775,-53.0,-39.0,1,0,0,5.143584207180538,click_2,0.006129759813120472,None,1197.6812242648875,None,1197.6812242648875,None,1197.6812242648875,None,0.005463910383696202,0.011153138312693045,,,04_control,001,control,23,m,16,1,sofia e alice,2023_Mar_24_1133,CPO_EEG,2020.1.3,143.76522232205474,
stimoli/01.full/F01-Neutral-Face Forward.mp4,neutral,full,femmina,1,6,720,576,53,,,,,,,,,,,,,,,,,0,0,0,0,,,,,,,,,0,43,43,52,,,0.00047180371439026203,0.00453040616139333,1204.4493848590455,None,0.006197435261128703,0.012606717124981515,0.0,0.0,1,0,0,13.666621122052675,click_1,0.006197435261128703,None,1210.4732390110785,None,1210.4732390110785,None,0.005401687459198001,0.011029333937585761,1224.14007630968,None,0.006190379052895878,0.012613773332304845,-33.0,50.0,1,0,0,2.097544696265686,click_2,0.006190379052895878,None,1224.6418454934246,None,1224.6418454934246,None,1224.6418454934246,None,0.005399121566370013,0.011022598468116485,,,04_control,001,control,23,m,16,1,sofia e alice,2023_Mar_24_1133,CPO_EEG,2020.1.3,143.76522232205474,
stimoli/02.subtle/JF1_Fear.mp4,fear,subtle,femmina,5,10,1646,926,1,,,,,,,,,,,,,,,,,0,0,0,0,,,,,,,,,0,44,44,0,,,0.006130080549155537,0.009894246688418207,1228.3509042530331,None,0.0062234149354480905,0.012655469106903183,-83.0,-57.0,1,0,0,9.290605749783026,click_1,0.0062234149354480905,None,1239.1768353036186,None,1239.1768353036186,None,0.0054581371223321185,0.011170458094966307,1248.467688982886,None,0.006129439076175913,0.012522042631644581,-20.0,-107.0,1,0,0,10.03652357318606,click_2,0.006129439076175913,None,1248.9695964041566,None,1248.9695964041566,None,1248.9695964041566,None,0.005371858945181884,0.01100303352723131,,,04_control,001,control,23,m,16,1,sofia e alice,2023_Mar_24_1133,CPO_EEG,2020.1.3,143.76522232205474,
stimoli/02.subtle/JF2_Sadness.mp4,sad,subtle,femmina,6,8,1646,926,18,,,,,,,,,,,,,,,,,0,0,0,0,,,,,,,,,0,45,45,17,,,0.0008611780922365142,0.004875839608757815,1260.6166413605388,None,0.006199680417921627,0.012666053417888179,-36.0,-206.0,1,0,0,1.6027127270253914,click_1,0.006199680417921627,None,1269.0005773260946,None,1269.0005773260946,None,0.005476419114529563,0.011176872829310014,1270.6035216250311,None,0.006120137711150164,0.012473290648813418,-60.0,-85.0,1,0,0,3.379734635267596,click_2,0.006120137711150164,None,1271.10535880496,None,1271.10535880496,None,1271.10535880496,None,0.0053138055991439614,0.010851325059775263,,,04_control,001,control,23,m,16,1,sofia e alice,2023_Mar_24_1133,CPO_EEG,2020.1.3,143.76522232205474,
stimoli/01.full/F01-Joy-Face Forward.mp4,happy,full,femmina,1,6,720,576,41,,,,,,,,,,,,,,,,,0,0,0,0,,,,,,,,,0,46,46,40,,,0.006134570863650879,0.009769800842150289,1276.110152856705,None,0.006169851902086521,0.012578813029904268,-17.0,-100.0,1,0,0,13.12416873060738,click_1,0.006169851902086521,None,1282.1340230455744,None,1282.1340230455744,None,0.005435044078694773,0.011085142127740255,1295.258432970195,None,0.006046689002687344,0.012307790502745775,2.0,1.0,1,0,0,8.844708581824307,click_2,0.006046689002687344,None,1295.7603089592667,None,1295.7603089592667,None,1295.7603089592667,None,0.005346520744751615,0.01093279218639509,,,04_control,001,control,23,m,16,1,sofia e alice,2023_Mar_24_1133,CPO_EEG,2020.1.3,143.76522232205474,
stimoli/01.full/F03-Joy-Face Forward.mp4,happy,full,femmina,2,6,720,576,42,,,,,,,,,,,,,,,,,0,0,0,0,,,,,,,,,0,47,47,41,,,0.0002227516515631578,0.004509077170041564,1306.2097403251373,None,0.006130722023954149,0.012504402111517265,119.0,71.0,1,0,0,3.4565433818861493,click_1,0.006130722023954149,None,1312.2365548770904,None,1312.2365548770904,None,0.005479305746121099,0.01116596778138046,1315.6933808280264,None,0.0061178925543572404,0.012471045492929989,6.0,3.0,1,0,0,3.8327810247028538,click_2,0.0061178925543572404,None,1316.1951400689322,None,1316.1951400689322,None,1316.1951400689322,None,0.005377632206545968,0.011007844579580706,,,04_control,001,control,23,m,16,1,sofia e alice,2023_Mar_24_1133,CPO_EEG,2020.1.3,143.76522232205474,
stimoli/01.full/F03-Fear-Face Forward.mp4,fear,full,femmina,2,6,720,576,30,,,,,,,,,,,,,,,,,0,0,0,0,,,,,,,,,0,48,48,29,,,0.0033881023355206707,0.006892150994644908,1321.642066160287,None,0.00620032189090125,0.012649695844629605,23.0,-104.0,1,0,0,7.1574881439673845,click_1,0.00620032189090125,None,1327.6680278733038,None,1327.6680278733038,None,0.005440175865260244,0.011135818528600794,1334.8257482306553,None,0.0060588769974856405,0.012361995007267979,-56.0,-77.0,1,0,0,1.1566099668298193,click_2,0.0060588769974856405,None,1335.327645388351,None,1335.327645388351,None,1335.327645388351,None,0.0054340818687705905,0.011106310751529236,,,04_control,001,control,23,m,16,1,sofia e alice,2023_Mar_24_1133,CPO_EEG,2020.1.3,143.76522232205474,
stimoli/02.subtle/JM2_Sadness.mp4,sad,subtle,maschio,8,10,1646,926,20,,,,,,,,,,,,,,,,,0,0,0,0,,,,,,,,,0,49,49,19,,,0.0061016953504804405,0.010024946902376541,1338.103055915315,None,0.006215717253326147,0.012678882886575593,-132.0,-23.0,1,0,0,6.6071568550096345,click_1,0.006215717253326147,None,1348.724909247545,None,1348.724909247545,None,0.005449797967230552,0.011120423167085391,1355.3322588653227,None,0.006112760766882275,0.012491251905885292,-19.0,-104.0,1,0,0,1.93036132274392,click_2,0.006112760766882275,None,1355.8340581983193,None,1355.8340581983193,None,1355.8340581983193,None,0.005398159356445831,0.011021636257282807,,,04_control,001,control,23,m,16,1,sofia e alice,2023_Mar_24_1133,CPO_EEG,2020.1.3,143.76522232205474,
stimoli/02.subtle/JM2_Disgust.mp4,disgusted,subtle,maschio,8,10,1646,926,12,,,,,,,,,,,,,,,,,0,0,0,0,,,,,,,,,0,50,50,11,,,0.006430290118260018,0.01006519935981487,1359.3756404310443,None,0.006208340309058258,0.012675996256803046,-22.0,-95.0,1,0,0,9.757023011576166,click_1,0.006208340309058258,None,1369.9977785774809,None,1369.9977785774809,None,0.005453005334857153,0.011166288518325018,1379.7550379720196,None,0.006111157083978469,0.012466234442399582,-57.0,40.0,1,0,0,9.039885535478788,click_2,0.006111157083978469,None,1380.2568725860547,None,1380.2568725860547,None,1380.2568725860547,None,0.005356142845812428,0.010964224385134003,,,04_control,001,control,23,m,16,1,sofia e alice,2023_Mar_24_1133,CPO_EEG,2020.1.3,143.76522232205474,
stimoli/01.full/M02-Sadness-Face Forward.mp4,sad,full,maschio,3,6,720,576,47,,,,,,,,,,,,,,,,,0,0,0,0,,,,,,,,,0,51,51,46,,,0.0038754617808081093,0.007936950858493219,1390.9043255195447,None,0.0061637579046873725,0.0125332684156092,-76.0,-128.0,1,0,0,4.181366671990872,click_1,0.0061637579046873725,None,1396.5709745456925,None,1396.5709745456925,None,0.005479626483065658,0.011163401887642976,1400.752625711153,None,0.006128476866251731,0.01248996895901655,0.0,-1.0,1,0,0,16.775015058588906,click_2,0.006128476866251731,None,1401.254421516045,None,1401.254421516045,None,1401.254421516045,None,0.005379235889449774,0.010964545121169067,,,04_control,001,control,23,m,16,1,sofia e alice,2023_Mar_24_1133,CPO_EEG,2020.1.3,143.76522232205474,
stimoli/02.subtle/JF2_Neutral.mp4,neutral,subtle,femmina,6,9,1646,926,26,,,,,,,,,,,,,,,,,0,0,0,0,,,,,,,,,0,52,52,25,,,0.0021763590102636954,0.005889528010811773,1419.6313801750066,None,0.006203208521583292,0.012640073743568792,0.0,0.0,1,0,0,1.1706980064927848,click_1,0.006203208521583292,None,1429.1388206254233,None,1429.1388206254233,None,0.0053138055991439614,0.010862871581593936,1430.3096982444795,None,0.006206095152265334,0.012629489431674301,0.0,0.0,1,0,0,0.1947298466684515,click_2,0.006206095152265334,None,1430.8115052751564,None,1430.8115052751564,None,1430.8115052751564,None,0.005561093608775991,0.011336278978888004,,,04_control,001,control,23,m,16,1,sofia e alice,2023_Mar_24_1133,CPO_EEG,2020.1.3,143.76522232205474,
stimoli/01.full/M02-Anger-Face Forward.mp4,angry,full,maschio,3,6,720,576,35,,,,,,,,,,,,,,,,,0,0,0,0,,,,,,,,,0,53,53,34,,,0.003858783471514471,0.007883708562985703,1432.6137823134222,None,0.006227584512089379,0.012692033092207566,-24.0,103.0,1,0,0,11.527073386485426,click_1,0.006227584512089379,None,1438.6360789679457,None,1438.6360789679457,None,0.005456212701574259,0.011183287563653721,1450.1633797567656,None,0.0061031386658214615,0.012421972774973256,-102.0,14.0,1,0,0,5.881783180694583,click_2,0.0061031386658214615,None,1450.6651069239997,None,1450.6651069239997,None,1450.6651069239997,None,0.005395914198743412,0.011036710882763145,,,04_control,001,control,23,m,16,1,sofia e alice,2023_Mar_24_1133,CPO_EEG,2020.1.3,143.76522232205474,
stimoli/01.full/F01-Disgust-Face Forward.mp4,disgusted,full,femmina,1,6,720,576,37,,,,,,,,,,,,,,,,,0,0,0,0,,,,,,,,,0,54,54,36,,,0.006460760107074748,0.010160137429011229,1458.144580094694,None,0.006228546722923056,0.01266188384124689,-82.0,49.0,1,0,0,1.205432189522071,click_1,0.006228546722923056,None,1464.1717458533549,None,1464.1717458533549,None,0.005505285420440487,0.011263471743404807,1465.3774455373014,None,0.006099931298194861,0.012463668547752604,-64.0,79.0,1,0,0,0.7453947018138933,click_2,0.006099931298194861,None,1465.8791916280015,None,1465.8791916280015,None,1465.8791916280015,None,0.005441138076093921,0.01112651716448454,,,04_control,001,control,23,m,16,1,sofia e alice,2023_Mar_24_1133,CPO_EEG,2020.1.3,143.76522232205474,
stimoli/02.subtle/JM1_Neutral.mp4,neutral,subtle,maschio,7,10,1646,926,27,,,,,,,,,,,,,,,,,0,0,0,0,,,,,,,,,0,55,55,26,,,0.003267344961386698,0.006837144648670801,1468.2320719399631,None,0.006194227893502102,0.012627565011825936,-35.0,53.0,1,0,0,5.575570061408143,click_1,0.006194227893502102,None,1478.6560012085356,None,1478.6560012085356,None,0.005435685551674396,0.01110117896405427,1484.2317896916502,None,0.006130401286100096,0.012508571688158554,6.0,5.0,1,0,0,1.045230292172164,click_2,0.006130401286100096,None,1484.7336140421103,None,1484.7336140421103,None,1484.7336140421103,None,0.005372179682126443,0.011004957947989169,,,04_control,001,control,23,m,16,1,sofia e alice,2023_Mar_24_1133,CPO_EEG,2020.1.3,143.76522232205474,
,,,,,,,,,,,,,,,,,,,,,,,,,0,0,0,0,,,,,,,,,,,,,,,,,,,,,,,,,,,,,,,,,,,,,,,,,,,,,,,,,,,,,,,,,,,04_control,001,control,23,m,16,1,sofia e alice,2023_Mar_24_1133,CPO_EEG,2020.1.3,143.76522232205474,
,,,,,,,,,,,,,,,,,,,,,,,,,1,0,1,0,,,,,0,0,0,0,,,,,,,,,,,,,,,,,,,,,,,,,,,,,,,,,,,,,,,,,,,,,,,,,,,04_control,001,control,23,m,16,1,sofia e alice,2023_Mar_24_1133,CPO_EEG,2020.1.3,143.76522232205474,
stimoli/01.full/M02-Anger-Face Forward.mp4,angry,full,maschio,3,6,720,576,35,,,,,,,,,,,,,,,,,1,0,1,0,,,,,,,,,0,0,0,34,,,0.00610025203513942,0.011678825796479941,1511.6892959251682,None,0.005950147249677684,0.012114065522837336,-94.0,16.0,1,0,0,10.970331853454809,click_1,0.005950147249677684,None,1517.7143932527251,None,1517.7143932527251,None,0.004769194648361008,0.009754084741871338,1528.6853425243644,None,0.005857454339093238,0.011944716537072964,1.0,1.0,1,0,0,0.4939319820059609,click_2,0.005857454339093238,None,1529.1868827020908,None,1529.1868827020908,None,1529.1868827020908,None,0.004519661481936055,0.009257263563995366,,,04_control,001,control,23,m,16,1,sofia e alice,2023_Mar_24_1133,CPO_EEG,2020.1.3,143.76522232205474,
stimoli/02.subtle/JF2_Anger.mp4,angry,subtle,femmina,6,9,1646,926,6,,,,,,,,,,,,,,,,,1,0,1,0,,,,,,,,,0,1,1,5,,,0.004058442079440283,0.006019105645464151,1531.2787067382287,None,0.006222131987669854,0.012658676472710795,-15.0,96.0,1,0,0,3.9849997851060834,click_1,0.006222131987669854,None,1540.7819336703633,None,1540.7819336703633,None,0.0054145169278854155,0.011091236125139403,1544.7671861960043,None,0.0060947995098104,0.012402087097143522,0.0,0.0,1,0,0,0.2854242480807443,click_2,0.0060947995098104,None,1545.269082070753,None,1545.269082070753,None,1545.269082070753,None,0.005405857037658279,0.0110710297121841,,,04_control,001,control,23,m,16,1,sofia e alice,2023_Mar_24_1133,CPO_EEG,2020.1.3,143.76522232205474,
stimoli/02.subtle/JM2_Neutral.mp4,neutral,subtle,maschio,8,10,1646,926,28,,,,,,,,,,,,,,,,,1,0,1,0,,,,,,,,,0,2,2,27,,,0.0017916353144755703,0.005586592178588035,1547.1367707970494,None,0.0062083403099677525,0.01266028015743359,0.0,0.0,1,0,0,0.9197093355560355,click_1,0.0062083403099677525,None,1558.1228764823645,None,1558.1228764823645,None,0.0054491564942509285,0.01113517705562117,1559.0427920516304,None,0.006208019572113699,0.012635262693038385,0.0,0.0,1,0,0,0.4387764920511472,click_2,0.006208019572113699,None,1559.5445747063168,None,1559.5445747063168,None,1559.5445747063168,None,0.0054186865063456935,0.011071350449128659,,,04_control,001,control,23,m,16,1,sofia e alice,2023_Mar_24_1133,CPO_EEG,2020.1.3,143.76522232205474,
stimoli/02.subtle/JF2_Fear.mp4,fear,subtle,femmina,6,10,1646,926,2,,,,,,,,,,,,,,,,,1,0,1,0,,,,,,,,,0,3,3,1,,,0.0053138055991439614,0.008952242943450983,1561.5685016655852,None,0.006153173593702377,0.012555078512377804,-83.0,-123.0,1,0,0,2.13928761808711,click_1,0.006153173593702377,None,1571.9919463009755,None,1571.9919463009755,None,0.0054882863732927945,0.01118200461678498,1574.1315062245376,None,0.006142268544863327,0.012499591060077364,24.0,-101.0,1,0,0,1.1286728363584189,click_2,0.006142268544863327,None,1574.633279577859,None,1574.633279577859,None,1574.633279577859,None,0.005428308606497012,0.011086425073699502,,,04_control,001,control,23,m,16,1,sofia e alice,2023_Mar_24_1133,CPO_EEG,2020.1.3,143.76522232205474,
stimoli/01.full/M02-Joy-Face Forward.mp4,happy,full,maschio,3,6,720,576,43,,,,,,,,,,,,,,,,,1,0,1,0,,,,,,,,,0,4,4,42,,,0.0033202665190401603,0.006940101134205179,1577.3423117163193,None,0.0062080195730231935,0.01262082954053767,121.0,84.0,1,0,0,4.906117475597057,click_1,0.0062080195730231935,None,1583.3689312603474,None,1583.3689312603474,None,0.005432157448922226,0.011076161499659065,1588.2752440646063,None,0.006147079595393734,0.012538400203084166,83.0,116.0,1,0,0,1.470351418393875,click_2,0.006147079595393734,None,1588.7770976021075,None,1588.7770976021075,None,1588.7770976021075,None,0.005428950081295625,0.011100858227109711,,,04_control,001,control,23,m,16,1,sofia e alice,2023_Mar_24_1133,CPO_EEG,2020.1.3,143.76522232205474,
stimoli/02.subtle/JM1_Disgust.mp4,disgusted,subtle,maschio,7,10,1646,926,11,,,,,,,,,,,,,,,,,1,0,1,0,,,,,,,,,0,5,5,10,,,0.0029013843632128555,0.0068897454693797044,1591.8287856073885,None,0.006196473050295026,0.012645526267988316,-80.0,48.0,1,0,0,3.428593421946971,click_1,0.006196473050295026,None,1602.2495443934895,None,1602.2495443934895,None,0.005445949126624328,0.011109518118246342,1605.678356557879,None,0.006122062131908024,0.012478743174142437,0.0,3.0,1,0,0,10.983275825239616,click_2,0.006122062131908024,None,1606.180153004244,None,1606.180153004244,None,1606.180153004244,None,0.005360633159398276,0.010933754396319273,,,04_control,001,control,23,m,16,1,sofia e alice,2023_Mar_24_1133,CPO_EEG,2020.1.3,143.76522232205474,
stimoli/01.full/M03-Fear-Face Forward.mp4,fear,full,maschio,4,6,720,576,32,,,,,,,,,,,,,,,,,1,0,1,0,,,,,,,,,0,6,6,31,,,0.004006322362329229,0.007782997233334754,1618.7567744406188,None,0.006185568002365471,0.012615697753062705,24.0,-98.0,1,0,0,12.726073201100007,click_1,0.006185568002365471,None,1624.7809393865327,None,1624.7809393865327,None,0.005471928800943715,0.011172061778779607,1637.5072409521772,None,0.006130722023044655,0.012525249997452192,-2.0,4.0,1,0,0,0.8639319371022793,click_2,0.006130722023044655,None,1638.009146769764,None,1638.009146769764,None,1638.009146769764,None,0.005413875454905792,0.011058841717385803,,,04_control,001,control,23,m,16,1,sofia e alice,2023_Mar_24_1133,CPO_EEG,2020.1.3,143.76522232205474,
stimoli/01.full/F03-Joy-Face Forward.mp4,happy,full,femmina,2,6,720,576,42,,,,,,,,,,,,,,,,,1,0,1,0,,,,,,,,,0,7,7,41,,,0.0010074340343635413,0.005024019971642701,1640.4562774911456,None,0.0061483625422624755,0.012528778102023352,123.0,79.0,1,0,0,0.7942509225995309,click_1,0.0061483625422624755,None,1646.4809957079005,None,1646.4809957079005,None,0.0054828338497827644,0.011187777878149063,1647.2755311239698,None,0.0061483625422624755,0.01252428778752801,136.0,-25.0,1,0,0,5.540301851740878,click_2,0.0061483625422624755,None,1647.7772534801534,None,1647.7772534801534,None,1647.7772534801534,None,0.005367368631596037,0.010994052900059614,,,04_control,001,control,23,m,16,1,sofia e alice,2023_Mar_24_1133,CPO_EEG,2020.1.3,143.76522232205474,
stimoli/02.subtle/JF1_Neutral.mp4,neutral,subtle,femmina,5,10,1646,926,25,,,,,,,,,,,,,,,,,1,0,1,0,,,,,,,,,0,8,8,24,,,0.003933354758373753,0.007494173817576666,1654.9175793230015,None,0.006221490513780736,0.012659959419579536,79.0,-120.0,1,0,0,9.15736049075258,click_1,0.006221490513780736,None,1665.7412209548838,None,1665.7412209548838,None,0.005465193329655449,0.01114576136751566,1674.898808206498,None,0.006147400331428798,0.012536796519270865,140.0,-24.0,1,0,0,0.8777207294060645,click_2,0.006147400331428798,None,1675.4006360850617,None,1675.4006360850617,None,1675.4006360850617,None,0.005448835758215864,0.011104386331680871,,,04_control,001,control,23,m,16,1,sofia e alice,2023_Mar_24_1133,CPO_EEG,2020.1.3,143.76522232205474,
stimoli/02.subtle/JM2_Sadness.mp4,sad,subtle,maschio,8,10,1646,926,20,,,,,,,,,,,,,,,,,1,0,1,0,,,,,,,,,0,9,9,19,,,0.0014247125072870404,0.0049261952726737945,1677.8605606734445,None,0.00619134126282006,0.012648092160816304,-133.0,-32.0,1,0,0,8.489202398341149,click_1,0.00619134126282006,None,1688.4839830497058,None,1688.4839830497058,None,0.0054090644043753855,0.011049861089304613,1696.97338847439,None,0.006112760766882275,0.012451480552954308,-24.0,-136.0,1,0,0,2.1255674634403476,click_2,0.006112760766882275,None,1697.4752307861063,None,1697.4752307861063,None,1697.4752307861063,None,0.004743214974041621,0.009716237808788719,,,04_control,001,control,23,m,16,1,sofia e alice,2023_Mar_24_1133,CPO_EEG,2020.1.3,143.76522232205474,
stimoli/01.full/F03-Neutral-Face Forward.mp4,neutral,full,femmina,2,6,720,576,54,,,,,,,,,,,,,,,,,1,0,1,0,,,,,,,,,0,10,10,53,,,0.00046009682409930974,0.004547565576103807,1701.177880584587,None,0.006187492422213836,0.01263718711288675,0.0,0.0,1,0,0,3.4914449894831705,click_1,0.006187492422213836,None,1707.1985366707913,None,1707.1985366707913,None,0.005441138076093921,0.011093481282841822,1710.6901641594677,None,0.006191662000674114,0.012654506896069506,0.0,0.0,1,0,0,0.5293801249717944,click_2,0.006191662000674114,None,1711.1921443879728,None,1711.1921443879728,None,1711.1921443879728,None,0.005386612833717663,0.011000146897458762,,,04_control,001,control,23,m,16,1,sofia e alice,2023_Mar_24_1133,CPO_EEG,2020.1.3,143.76522232205474,
stimoli/02.subtle/JM2_Happiness.mp4,happy,subtle,maschio,8,10,1646,926,16,,,,,,,,,,,,,,,,,1,0,1,0,,,,,,,,,0,11,11,15,,,0.006470542577517335,0.009854956440904061,1713.3119597590876,None,0.006250036082747101,0.012711277295238688,-33.0,52.0,1,0,0,10.934740982646872,click_1,0.006250036082747101,None,1723.9339404237953,None,1723.9339404237953,None,0.005471287327964092,0.011147044315293897,1734.868886357207,None,0.006129759813120472,0.012523967051492946,17.0,86.0,1,0,0,0.905676783344461,click_2,0.006129759813120472,None,1735.370653295794,None,1735.370653295794,None,1735.370653295794,None,0.005428629343441571,0.011110159591225965,,,04_control,001,control,23,m,16,1,sofia e alice,2023_Mar_24_1133,CPO_EEG,2020.1.3,143.76522232205474,
stimoli/01.full/M02-Disgust-Face Forward.mp4,disgusted,full,maschio,3,6,720,576,39,,,,,,,,,,,,,,,,,1,0,1,0,,,,,,,,,0,12,12,38,,,0.002255420610708825,0.0062803457030895515,1737.8582911404174,None,0.006206736627063947,0.01262788574967999,-89.0,54.0,1,0,0,4.543767732730885,click_1,0.006206736627063947,None,1743.8789956578657,None,1743.8789956578657,None,0.005378594415560656,0.010980261220538523,1748.4229574363126,None,0.006127514655418054,0.012490931168940733,-56.0,80.0,1,0,0,1.4283724343467838,click_2,0.006127514655418054,None,1748.924787239297,None,1748.924787239297,None,1748.924787239297,None,0.005379235889449774,0.011013938576070359,,,04_control,001,control,23,m,16,1,sofia e alice,2023_Mar_24_1133,CPO_EEG,2020.1.3,143.76522232205474,
stimoli/01.full/F01-Disgust-Face Forward.mp4,disgusted,full,femmina,1,6,720,576,37,,,,,,,,,,,,,,,,,1,0,1,0,,,,,,,,,0,13,13,36,,,0.004816824051886215,0.008510428112458612,1751.9320682835641,None,0.006106987505518191,0.012421010564139578,-85.0,53.0,1,0,0,2.494586926386546,click_1,0.006106987505518191,None,1757.957788161094,None,1757.957788161094,None,0.005465193329655449,0.011184891247467021,1760.452787875639,None,0.006063367311980983,0.012338901964540128,5.0,4.0,1,0,0,1.0170994367217645,click_2,0.006063367311980983,None,1760.9545336456022,None,1760.9545336456022,None,1760.9545336456022,None,0.005436006287709461,0.011110480328170524,,,04_control,001,control,23,m,16,1,sofia e alice,2023_Mar_24_1133,CPO_EEG,2020.1.3,143.76522232205474,
stimoli/02.subtle/JF2_Neutral.mp4,neutral,subtle,femmina,6,9,1646,926,26,,,,,,,,,,,,,,,,,1,0,1,0,,,,,,,,,0,14,14,25,,,0.002350519048377464,0.00610025203513942,1763.5599966899972,None,0.006196793787239585,0.012626923537936818,0.0,0.0,1,0,0,0.39005626363541523,click_1,0.006196793787239585,None,1773.0620744224652,None,1773.0620744224652,None,0.005484758270540624,0.011208946501938044,1773.4523779741112,None,0.006176587373374787,0.012582661870510492,0.0,0.0,1,0,0,0.41087271819833404,click_2,0.006176587373374787,None,1773.95415549701,None,1773.95415549701,None,1773.95415549701,None,0.005381481047152192,0.010987958901750972,,,04_control,001,control,23,m,16,1,sofia e alice,2023_Mar_24_1133,CPO_EEG,2020.1.3,143.76522232205474,
stimoli/02.subtle/JM2_Surprise.mp4,surprised,subtle,maschio,8,10,1646,926,24,,,,,,,,,,,,,,,,,1,0,1,0,,,,,,,,,0,15,15,23,,,0.002145407916032127,0.005586912915532594,1775.9463676887262,None,0.0062288674589581206,0.012691070882283384,-52.0,76.0,1,0,0,8.91431326098791,click_1,0.0062288674589581206,None,1786.9319557049757,None,1786.9319557049757,None,0.005402649670941173,0.011040238987334305,1795.8464325416908,None,0.006112760766882275,0.01245661233951978,17.0,-92.0,1,0,0,9.465115070712272,click_2,0.006112760766882275,None,1796.3482286673197,None,1796.3482286673197,None,1796.3482286673197,None,0.005263449933408992,0.010784932557726279,,,04_control,001,control,23,m,16,1,sofia e alice,2023_Mar_24_1133,CPO_EEG,2020.1.3,143.76522232205474,
stimoli/02.subtle/JM1_Fear.mp4,fear,subtle,maschio,7,10,1646,926,3,,,,,,,,,,,,,,,,,1,0,1,0,,,,,,,,,0,16,16,2,,,0.0043464636537464685,0.008442913033832156,1807.4137349726825,None,0.0061923034736537375,0.012616339226042328,-109.0,-162.0,1,0,0,4.71800923849969,click_1,0.0061923034736537375,None,1817.8401531581976,None,1817.8401531581976,None,0.0053404267455334775,0.010932792185485596,1822.5583830635615,None,0.006122382868852583,0.012470083282096311,0.0,-1.0,1,0,0,1.0659809957078323,click_2,0.006122382868852583,None,1823.0601775855066,None,1823.0601775855066,None,1823.0601775855066,None,0.0054000837762941956,0.011036710882763145,,,04_control,001,control,23,m,16,1,sofia e alice,2023_Mar_24_1133,CPO_EEG,2020.1.3,143.76522232205474,
stimoli/01.full/M03-Neutral-Face Forward.mp4,neutral,full,maschio,4,6,720,576,56,,,,,,,,,,,,,,,,,1,0,1,0,,,,,,,,,0,17,17,55,,,0.002712791172598372,0.006550085283379303,1825.707443208753,None,0.006185568001455977,0.012599019442859571,0.0,0.0,1,0,0,1.4215195736005626,click_1,0.006185568001455977,None,1831.7344880496703,None,1831.7344880496703,None,0.005453967544781335,0.011165326307491341,1833.1562536283336,None,0.006189416842062201,0.012613131859325222,0.0,0.0,1,0,0,0.15303022430362034,click_2,0.006189416842062201,None,1833.6580212083945,None,1833.6580212083945,None,1833.6580212083945,None,0.005421252400083176,0.011103424120847194,,,04_control,001,control,23,m,16,1,sofia e alice,2023_Mar_24_1133,CPO_EEG,2020.1.3,143.76522232205474,
stimoli/01.full/F01-Fear-Face Forward.mp4,fear,full,femmina,1,6,720,576,29,,,,,,,,,,,,,,,,,1,0,1,0,,,,,,,,,0,18,18,28,,,0.0007206954096545815,0.004992267038687714,1835.394691229967,None,0.0062468287151205,0.012732766655062733,-144.0,-32.0,1,0,0,2.919938662309505,click_1,0.0062468287151205,None,1841.4162088149997,None,1841.4162088149997,None,0.00545942006920086,0.011122668323878315,1844.3363094493525,None,0.006137136756478867,0.012535834309346683,-114.0,-83.0,1,0,0,4.934022211658885,click_2,0.006137136756478867,None,1844.8381017261408,None,1844.8381017261408,None,1844.8381017261408,None,0.005377632205636473,0.01097031838253315,,,04_control,001,control,23,m,16,1,sofia e alice,2023_Mar_24_1133,CPO_EEG,2020.1.3,143.76522232205474,
stimoli/01.full/F01-Joy-Face Forward.mp4,happy,full,femmina,1,6,720,576,41,,,,,,,,,,,,,,,,,1,0,1,0,,,,,,,,,0,19,19,40,,,0.0032554777008044766,0.007081225289766735,1851.3527741481066,None,0.006185568003274966,0.012608962282683933,4.0,2.0,1,0,0,16.01513267915925,click_1,0.006185568003274966,None,1857.3795191001918,None,1857.3795191001918,None,0.0054299122903103125,0.01111561211564549,1873.3949195945115,None,0.006123024341832206,0.012471366229874548,0.0,0.0,1,0,0,0.25054316763453244,click_2,0.006123024341832206,None,1873.8966573460575,None,1873.8966573460575,None,1873.8966573460575,None,0.005422856082986982,0.011082896970947331,,,04_control,001,control,23,m,16,1,sofia e alice,2023_Mar_24_1133,CPO_EEG,2020.1.3,143.76522232205474,
stimoli/01.full/M02-Surprise-Face Forward.mp4,surprised,full,maschio,3,6,720,576,51,,,,,,,,,,,,,,,,,1,0,1,0,,,,,,,,,0,20,20,50,,,0.006066735048079863,0.009914613470755285,1875.7385844990504,None,0.006233357774362958,0.012677599940616346,43.0,-190.0,1,0,0,4.397572087181288,click_1,0.006233357774362958,None,1881.764703373059,None,1881.764703373059,None,0.005450439442029165,0.011126196428449475,1886.1624804110043,None,0.006135212336630502,0.012532626942629577,-2.0,-1.0,1,0,0,5.63153027979115,click_2,0.006135212336630502,None,1886.6643618526005,None,1886.6643618526005,None,1886.6643618526005,None,0.005371217472202261,0.010975770906952675,,,04_control,001,control,23,m,16,1,sofia e alice,2023_Mar_24_1133,CPO_EEG,2020.1.3,143.76522232205474,
stimoli/01.full/F01-Sadness-Face Forward.mp4,sad,full,femmina,1,6,720,576,45,,,,,,,,,,,,,,,,,1,0,1,0,,,,,,,,,0,21,21,44,,,0.0004403715165608446,0.004762619547364011,1893.8798840985792,None,0.0062080195730231935,0.012659317946599913,-23.0,-135.0,1,0,0,2.7177430270230616,click_1,0.0062080195730231935,None,1899.9017900957779,None,1899.9017900957779,None,0.005508813524102152,0.0112586606928744,1902.6198019001722,None,0.006124628025645507,0.012492214115809475,-50.0,-74.0,1,0,0,3.3938005440977577,click_2,0.006124628025645507,None,1903.1215791023342,None,1903.1215791023342,None,1903.1215791023342,None,0.005376349258767732,0.010980261219629028,,,04_control,001,control,23,m,16,1,sofia e alice,2023_Mar_24_1133,CPO_EEG,2020.1.3,143.76522232205474,
stimoli/01.full/F01-Anger-Face Forward.mp4,angry,full,femmina,1,6,720,576,33,,,,,,,,,,,,,,,,,1,0,1,0,,,,,,,,,0,22,22,32,,,0.0055897995462146355,0.0091413172403918,1908.0935014891802,None,0.006210585465851182,0.012631093115487602,-22.0,106.0,1,0,0,2.174225148196456,click_1,0.006210585465851182,None,1914.1189647773344,None,1914.1189647773344,None,0.00546840069728205,0.011144799157591478,1916.2934564577445,None,0.006137457494332921,0.012520118210886721,-93.0,17.0,1,0,0,7.819093585201699,click_2,0.006137457494332921,None,1916.7952105668637,None,1916.7952105668637,None,1916.7952105668637,None,0.005383084730055998,0.011002392054251686,,,04_control,001,control,23,m,16,1,sofia e alice,2023_Mar_24_1133,CPO_EEG,2020.1.3,143.76522232205474,
stimoli/02.subtle/JF2_Disgust.mp4,disgusted,subtle,femmina,6,10,1646,926,10,,,,,,,,,,,,,,,,,1,0,1,0,,,,,,,,,0,23,23,9,,,0.004325936503846606,0.007817155694283429,1926.2002365754042,None,0.006127514655418054,0.0125316647317959,-11.0,68.0,1,0,0,6.384060732139915,click_1,0.006127514655418054,None,1936.6213840944092,None,1936.6213840944092,None,0.005434081867861096,0.011094122755821445,1943.00569981224,None,0.006109874136200233,0.012481950540859543,-62.0,7.0,1,0,0,0.7176272410679303,click_2,0.006109874136200233,None,1943.5075219175433,None,1943.5075219175433,None,1943.5075219175433,None,0.005406498510637903,0.010995977319907979,,,04_control,001,control,23,m,16,1,sofia e alice,2023_Mar_24_1133,CPO_EEG,2020.1.3,143.76522232205474,
stimoli/01.full/M03-Surprise-Face Forward.mp4,surprised,full,maschio,4,6,720,576,52,,,,,,,,,,,,,,,,,1,0,1,0,,,,,,,,,0,24,24,51,,,0.00013406794914772036,0.004217046386656875,1945.8093310009353,None,0.006166644535369414,0.012586831448061275,31.0,-140.0,1,0,0,1.8326854451597683,click_1,0.006166644535369414,None,1951.8345832443283,None,1951.8345832443283,None,0.005493097424732696,0.011224983337342564,1953.6675583147462,None,0.006024558168974181,0.01231292229022074,0.0,0.0,1,0,0,0.8498721222704262,click_2,0.006024558168974181,None,1954.169287406401,None,1954.169287406401,None,1954.169287406401,None,0.005410026614299568,0.011029654675439815,,,04_control,001,control,23,m,16,1,sofia e alice,2023_Mar_24_1133,CPO_EEG,2020.1.3,143.76522232205474,
stimoli/02.subtle/JF2_Sadness.mp4,sad,subtle,femmina,6,8,1646,926,18,,,,,,,,,,,,,,,,,1,0,1,0,,,,,,,,,0,25,25,17,,,0.006729697847731586,0.01046724283878575,1956.6099094175352,None,0.006230791878806485,0.012693957512055931,-76.0,-122.0,1,0,0,7.017971840599785,click_1,0.006230791878806485,None,1964.994815932404,None,1964.994815932404,None,0.0054398551292251796,0.011093160545897263,1972.0129766869304,None,0.006073630886930914,0.012364881638859515,87.0,-51.0,1,0,0,1.0310774636909628,click_2,0.006073630886930914,None,1972.5147779443469,None,1972.5147779443469,None,1972.5147779443469,None,0.005402970406976237,0.011032220569177298,,,04_control,001,control,23,m,16,1,sofia e alice,2023_Mar_24_1133,CPO_EEG,2020.1.3,143.76522232205474,
stimoli/01.full/F03-Anger-Face Forward.mp4,angry,full,femmina,2,6,720,576,34,,,,,,,,,,,,,,,,,1,0,1,0,,,,,,,,,0,26,26,33,,,0.003343680299622065,0.007161088734392251,1975.1263731540794,None,0.006207057362189516,0.012652582475311647,-20.0,102.0,1,0,0,2.703781357627122,click_1,0.006207057362189516,None,1981.149133273163,None,1981.149133273163,None,0.005482192376803141,0.011217927130019234,1983.8531731445855,None,0.006123024342741701,0.012491572643739346,14.0,-66.0,1,0,0,11.416592416116146,click_2,0.006123024342741701,None,1984.3550433603968,None,1984.3550433603968,None,1984.3550433603968,None,0.005365444210838177,0.010959413333694101,,,04_control,001,control,23,m,16,1,sofia e alice,2023_Mar_24_1133,CPO_EEG,2020.1.3,143.76522232205474,
stimoli/01.full/M03-Joy-Face Forward.mp4,happy,full,maschio,4,6,720,576,44,,,,,,,,,,,,,,,,,1,0,1,0,,,,,,,,,0,27,27,43,,,0.0034544948366601602,0.00746562825042929,1997.3591831092344,None,0.0061987182079974446,0.01263333827319002,-54.0,79.0,1,0,0,7.129260746764885,click_1,0.0061987182079974446,None,2003.383468331418,None,2003.383468331418,None,0.005477702062307799,0.011199645136912295,2010.5129984970272,None,0.006104421611780708,0.01247072475598543,-2.0,0.0,1,0,0,5.4078584345097624,click_2,0.006104421611780708,None,2011.014796867813,None,2011.014796867813,None,2011.014796867813,None,0.005477702062307799,0.011211191658730968,,,04_control,001,control,23,m,16,1,sofia e alice,2023_Mar_24_1133,CPO_EEG,2020.1.3,143.76522232205474,
stimoli/01.full/M02-Fear-Face Forward.mp4,fear,full,maschio,3,6,720,576,31,,,,,,,,,,,,,,,,,1,0,1,0,,,,,,,,,0,28,28,30,,,0.006596752476070833,0.010264376863233338,2018.0066325146208,None,0.006163757905596867,0.012568228718919272,31.0,-141.0,1,0,0,5.9724557720101075,click_1,0.006163757905596867,None,2024.0284198392337,None,2024.0284198392337,None,0.005449797968140047,0.011159873783981311,2030.0011546521891,None,0.006111477820013533,0.012455970866540156,-89.0,-53.0,1,0,0,0.6617513764413161,click_2,0.006111477820013533,None,2030.5029947187486,None,2030.5029947187486,None,2030.5029947187486,None,0.00541836576849164,0.011062690557082533,,,04_control,001,control,23,m,16,1,sofia e alice,2023_Mar_24_1133,CPO_EEG,2020.1.3,143.76522232205474,
stimoli/01.full/F01-Surprise-Face Forward.mp4,surprised,full,femmina,1,6,720,576,49,,,,,,,,,,,,,,,,,1,0,1,0,,,,,,,,,0,29,29,48,,,0.0017223561835635337,0.005851199972312315,2032.7473996270473,None,0.0062128306235536,0.012638149323720427,29.0,-142.0,1,0,0,6.216297145891986,click_1,0.0062128306235536,None,2038.7715751572732,None,2038.7715751572732,None,0.005458457860186172,0.011141912527818931,2044.9881141386513,None,0.006108270453296427,0.012440575504115259,0.0,7.0,1,0,0,0.4665680080515813,click_2,0.006108270453296427,None,2045.4898983970215,None,2045.4898983970215,None,2045.4898983970215,None,0.005460061542180483,0.011158590836203075,,,04_control,001,control,23,m,16,1,sofia e alice,2023_Mar_24_1133,CPO_EEG,2020.1.3,143.76522232205474,
stimoli/02.subtle/JF1_Anger.mp4,angry,subtle,femmina,5,10,1646,926,5,,,,,,,,,,,,,,,,,1,0,1,0,,,,,,,,,0,30,30,4,,,0.004599845661687141,0.008344126124029572,2047.542475484489,None,0.006204491468452034,0.012671826678342768,-17.0,88.0,1,0,0,2.048791431967402,click_1,0.006204491468452034,None,2058.363925522368,None,2058.363925522368,None,0.005479947219100723,0.011167571464284265,2060.412923508782,None,0.006119816974205605,0.012505364321441448,57.0,-88.0,1,0,0,3.714349632532503,click_2,0.006119816974205605,None,2060.914701352418,None,2060.914701352418,None,2060.914701352418,None,0.005374424838919367,0.010982506377331447,,,04_control,001,control,23,m,16,1,sofia e alice,2023_Mar_24_1133,CPO_EEG,2020.1.3,143.76522232205474,
stimoli/02.subtle/JF1_Surprise.mp4,surprised,subtle,femmina,5,10,1646,926,21,,,,,,,,,,,,,,,,,1,0,1,0,,,,,,,,,0,31,31,20,,,0.003617108353864751,0.00723662223208521,2066.215842341224,None,0.006185568002365471,0.012583944817379233,-78.0,-53.0,1,0,0,3.547227198987457,click_1,0.006185568002365471,None,2077.0377997845926,None,2077.0377997845926,None,0.005457816386297054,0.011177835040143691,2080.5853124392606,None,0.006029048481650534,0.012303620924285497,-60.0,85.0,1,0,0,4.3070297149743055,click_2,0.006029048481650534,None,2081.087192277173,None,2081.087192277173,None,2081.087192277173,None,0.005351331794372527,0.010961017017507402,,,04_control,001,control,23,m,16,1,sofia e alice,2023_Mar_24_1133,CPO_EEG,2020.1.3,143.76522232205474,
stimoli/02.subtle/JF2_Surprise.mp4,surprised,subtle,femmina,6,10,1646,926,22,,,,,,,,,,,,,,,,,1,0,1,0,,,,,,,,,0,32,32,21,,,0.004117457636311883,0.008301147404381481,2086.981349801239,None,0.006219886831786425,0.012654827633014065,15.0,66.0,1,0,0,5.547263762973671,click_1,0.006219886831786425,None,2097.4060732139287,None,2097.4060732139287,None,0.005463910383696202,0.011172382515724166,2102.9535913211203,None,0.006137457493423426,0.012508250951213995,-54.0,79.0,1,0,0,2.508629742172161,click_2,0.006137457493423426,None,2103.4553143187777,None,2103.4553143187777,None,2103.4553143187777,None,0.00539495198881923,0.011009768998519576,,,04_control,001,control,23,m,16,1,sofia e alice,2023_Mar_24_1133,CPO_EEG,2020.1.3,143.76522232205474,
stimoli/01.full/F01-Neutral-Face Forward.mp4,neutral,full,femmina,1,6,720,576,53,,,,,,,,,,,,,,,,,1,0,1,0,,,,,,,,,0,33,33,52,,,0.002319888691090455,0.006123184709394991,2107.5454483931408,None,0.006105063085669826,0.012473611386667471,0.0,0.0,1,0,0,0.46665556917650974,click_1,0.006105063085669826,None,2113.5690523705325,None,2113.5690523705325,None,0.005438251446321374,0.011111121802969137,2114.035981528131,None,0.0062134720965332235,0.01266894004857022,0.0,0.0,1,0,0,0.5014766718559258,click_2,0.0062134720965332235,None,2114.537787596598,None,2114.537787596598,None,2114.537787596598,None,0.005455571228594636,0.011118498746327532,,,04_control,001,control,23,m,16,1,sofia e alice,2023_Mar_24_1133,CPO_EEG,2020.1.3,143.76522232205474,
stimoli/01.full/M03-Sadness-Face Forward.mp4,sad,full,maschio,4,6,720,576,48,,,,,,,,,,,,,,,,,1,0,1,0,,,,,,,,,0,34,34,47,,,0.0030376974691534997,0.006888783259455522,2116.620015831564,None,0.006206095152265334,0.01262243322435097,-21.0,-96.0,1,0,0,1.5120298721358267,click_1,0.006206095152265334,None,2122.643288487925,None,2122.643288487925,None,0.005487644900313171,0.011182966827618657,2124.155561478493,None,0.006133287917691632,0.012497666641138494,-5.0,2.0,1,0,0,0.49444259486335795,click_2,0.006133287917691632,None,2124.6573916022144,None,2124.6573916022144,None,2124.6573916022144,None,0.0054244597668002825,0.011107914434433042,,,04_control,001,control,23,m,16,1,sofia e alice,2023_Mar_24_1133,CPO_EEG,2020.1.3,143.76522232205474,
stimoli/02.subtle/JM2_Fear.mp4,fear,subtle,maschio,8,10,1646,926,4,,,,,,,,,,,,,,,,,1,0,1,0,,,,,,,,,0,35,35,3,,,0.006413611809875874,0.010303827480129257,2126.7363236259152,None,0.0062038499945629155,0.012638149322810932,-143.0,-28.0,1,0,0,2.2370821682579844,click_1,0.0062038499945629155,None,2137.358820035268,None,2137.358820035268,None,0.005472249538797769,0.011164043361532094,2139.5961395486975,None,0.0061178925543572404,0.01247232843979873,-14.0,-109.0,1,0,0,0.9056690856632486,click_2,0.0061178925543572404,None,2140.0980033497744,None,2140.0980033497744,None,2140.0980033497744,None,0.005428308607406507,0.011079368866376171,,,04_control,001,control,23,m,16,1,sofia e alice,2023_Mar_24_1133,CPO_EEG,2020.1.3,143.76522232205474,
stimoli/02.subtle/JM1_Sadness.mp4,sad,subtle,maschio,7,10,1646,926,19,,,,,,,,,,,,,,,,,1,0,1,0,,,,,,,,,0,36,36,18,,,0.004029255037494295,0.007856606310269854,2142.5904034932073,None,0.006194869366481726,0.012620188066648552,77.0,-54.0,1,0,0,13.41554168262337,click_1,0.006194869366481726,None,2153.011788357385,None,2153.011788357385,None,0.005478985010086035,0.011165647045345395,2166.42756257413,None,0.006105063085669826,0.012480026121011178,-23.0,-99.0,1,0,0,1.853453789215564,click_2,0.006105063085669826,None,2166.9293481154473,None,2166.9293481154473,None,2166.9293481154473,None,0.005383726203945116,0.011025485097889032,,,04_control,001,control,23,m,16,1,sofia e alice,2023_Mar_24_1133,CPO_EEG,2020.1.3,143.76522232205474,
stimoli/01.full/M03-Disgust-Face Forward.mp4,disgusted,full,maschio,4,6,720,576,40,,,,,,,,,,,,,,,,,1,0,1,0,,,,,,,,,0,37,37,39,,,0.0018083136237692088,0.005491333372447116,2170.3647373070044,None,0.0061082704523869324,0.012445707291590224,-74.0,49.0,1,0,0,9.39506264308875,click_1,0.0061082704523869324,None,2176.388583761356,None,2176.388583761356,None,0.005460061542180483,0.011148006524308585,2185.783986385368,None,0.006144192964711692,0.012503760637628147,-59.0,-34.0,1,0,0,5.7011772962023315,click_2,0.006144192964711692,None,2186.2858566011782,None,2186.2858566011782,None,2186.2858566011782,None,0.005311239705406479,0.010885323152251658,,,04_control,001,control,23,m,16,1,sofia e alice,2023_Mar_24_1133,CPO_EEG,2020.1.3,143.76522232205474,
stimoli/02.subtle/JM2_Anger.mp4,angry,subtle,maschio,8,10,1646,926,8,,,,,,,,,,,,,,,,,1,0,1,0,,,,,,,,,0,38,38,7,,,0.006061442891223123,0.009987260336856707,2193.5719470194254,None,0.006194548630446661,0.012617942909855628,-19.0,100.0,1,0,0,0.7873614978661863,click_1,0.006194548630446661,None,2204.5569172967535,None,2204.5569172967535,None,0.005476739852383616,0.011176872830219509,2205.3445212715797,None,0.006065933205718466,0.012370013425424986,1.0,-1.0,1,0,0,3.958107935603948,click_2,0.006065933205718466,None,2205.8463016811093,None,2205.8463016811093,None,2205.8463016811093,None,0.005475777641549939,0.011191305981810729,,,04_control,001,control,23,m,16,1,sofia e alice,2023_Mar_24_1133,CPO_EEG,2020.1.3,143.76522232205474,
stimoli/02.subtle/JF1_Fear.mp4,fear,subtle,femmina,5,10,1646,926,1,,,,,,,,,,,,,,,,,1,0,1,0,,,,,,,,,0,39,39,0,,,0.0010027833541244036,0.004562640203403134,2211.3938993310067,None,0.006160871274914825,0.012555078513287299,-58.0,-90.0,1,0,0,2.1462604343669227,click_1,0.006160871274914825,None,2222.220898755605,None,2222.220898755605,None,0.005467438486448373,0.011143836946757801,2224.3674363064983,None,0.006115326661529252,0.012492855590608087,-102.0,-23.0,1,0,0,0.8290893450621297,click_2,0.006115326661529252,None,2224.869284391476,None,2224.869284391476,None,2224.869284391476,None,0.005381481047152192,0.01102580583483359,,,04_control,001,control,23,m,16,1,sofia e alice,2023_Mar_24_1133,CPO_EEG,2020.1.3,143.76522232205474,
stimoli/02.subtle/JM2_Disgust.mp4,disgusted,subtle,maschio,8,10,1646,926,12,,,,,,,,,,,,,,,,,1,0,1,0,,,,,,,,,0,40,40,11,,,0.006029369218595093,0.009988543282815954,2227.2833208566744,None,0.006203208521583292,0.012660600893468654,-53.0,84.0,1,0,0,9.39500106163905,click_1,0.006203208521583292,None,2237.9090794792,None,2237.9090794792,None,0.0054145169278854155,0.011054672138925525,2247.3043008869654,None,0.006113402239861898,0.012489006748182874,-84.0,59.0,1,0,0,0.8011551012214113,click_2,0.006113402239861898,None,2247.806168216145,None,2247.806168216145,None,2247.806168216145,None,0.005438251445411879,0.011101820437033894,,,04_control,001,control,23,m,16,1,sofia e alice,2023_Mar_24_1133,CPO_EEG,2020.1.3,143.76522232205474,
stimoli/02.subtle/JF2_Happiness.mp4,happy,subtle,femmina,6,9,1646,926,14,,,,,,,,,,,,,,,,,1,0,1,0,,,,,,,,,0,41,41,13,,,0.0007221387240861077,0.004597279767949658,2250.1973390398807,None,0.0062134720965332235,0.012654506896069506,130.0,81.0,1,0,0,5.707466622533502,click_1,0.0062134720965332235,None,2259.7044173785416,None,2259.7044173785416,None,0.005567829080973752,0.011394332325835421,2265.412255414196,None,0.006121099921074347,0.012480346857046243,142.0,29.0,1,0,0,10.01542422883631,click_2,0.006121099921074347,None,2265.9140528227717,None,2265.9140528227717,None,2265.9140528227717,None,0.005318295911820314,0.010902001460635802,,,04_control,001,control,23,m,16,1,sofia e alice,2023_Mar_24_1133,CPO_EEG,2020.1.3,143.76522232205474,
stimoli/02.subtle/JF1_Disgust.mp4,disgusted,subtle,femmina,5,10,1646,926,9,,,,,,,,,,,,,,,,,1,0,1,0,,,,,,,,,0,42,42,8,,,0.0007368926126218867,0.004699274044469348,2277.519631332385,None,0.006222452725523908,0.012657393526751548,-155.0,99.0,1,0,0,0.9267552798073666,click_1,0.006222452725523908,None,2288.3437370703004,None,2288.3437370703004,None,0.005465514067509503,0.011171420305799984,2289.2707482980104,None,0.006057594051526394,0.01237899405441567,-3.0,5.0,1,0,0,1.0450189266739471,click_2,0.006057594051526394,None,2289.772500161972,None,2289.772500161972,None,2289.772500161972,None,0.005419007241471263,0.011043125617106853,,,04_control,001,control,23,m,16,1,sofia e alice,2023_Mar_24_1133,CPO_EEG,2020.1.3,143.76522232205474,
stimoli/01.full/F03-Fear-Face Forward.mp4,fear,full,femmina,2,6,720,576,30,,,,,,,,,,,,,,,,,1,0,1,0,,,,,,,,,0,43,43,29,,,0.002231365356237802,0.005791542942461092,2292.398932973081,None,0.006227905249033938,0.012666374153923243,33.0,-193.0,1,0,0,3.8189046712732306,click_1,0.006227905249033938,None,2298.4226062296048,None,2298.4226062296048,None,0.005460703016069601,0.011141591790874372,2302.24174151058,None,0.006117571818322176,0.012466875915379205,-49.0,-88.0,1,0,0,4.731781031758146,click_2,0.006117571818322176,None,2302.7435632951465,None,2302.7435632951465,None,2302.7435632951465,None,0.005480588692989841,0.011213116078579333,,,04_control,001,control,23,m,16,1,sofia e alice,2023_Mar_24_1133,CPO_EEG,2020.1.3,143.76522232205474,
stimoli/02.subtle/JM1_Neutral.mp4,neutral,subtle,maschio,7,10,1646,926,27,,,,,,,,,,,,,,,,,1,0,1,0,,,,,,,,,0,44,44,26,,,0.001571930662066734,0.004894763074844377,2309.057212053799,None,0.006192944946633361,0.01262820648480556,0.0,0.0,1,0,0,2.808432617384824,click_1,0.006192944946633361,None,2319.4787922466385,None,2319.4787922466385,None,0.005420610926194058,0.011081934761023149,2322.287422117106,None,0.006205132942341152,0.012623395434275153,0.0,0.0,1,0,0,0.12517648537959758,click_2,0.006205132942341152,None,2322.7892429394615,None,2322.7892429394615,None,2322.7892429394615,None,0.005438892919300997,0.011107593698397977,,,04_control,001,control,23,m,16,1,sofia e alice,2023_Mar_24_1133,CPO_EEG,2020.1.3,143.76522232205474,
stimoli/01.full/F03-Sadness-Face Forward.mp4,sad,full,femmina,2,6,720,576,46,,,,,,,,,,,,,,,,,1,0,1,0,,,,,,,,,0,45,45,45,,,0.003827672009720118,0.008158900668604474,2324.4951587999567,None,0.006242017663680599,0.01271961644943076,-26.0,-141.0,1,0,0,2.271784598351587,click_1,0.006242017663680599,None,2330.5217238187424,None,2330.5217238187424,None,0.005456854174553882,0.011137422212414094,2332.793675841661,None,0.0060931958259971,0.012400483413330221,-37.0,140.0,1,0,0,0.5501965795347132,click_2,0.0060931958259971,None,2333.295448874246,None,2333.295448874246,None,2333.295448874246,None,0.005425101240689401,0.011082576234002772,,,04_control,001,control,23,m,16,1,sofia e alice,2023_Mar_24_1133,CPO_EEG,2020.1.3,143.76522232205474,
stimoli/02.subtle/JF1_Happiness.mp4,happy,subtle,femmina,5,10,1646,926,13,,,,,,,,,,,,,,,,,1,0,1,0,,,,,,,,,0,46,46,12,,,0.0008619799318694277,0.004519661480117065,2335.4352981023285,None,0.00619134126282006,0.01261537701520865,133.0,87.0,1,0,0,12.537551855109086,click_1,0.00619134126282006,None,2346.2590205598644,None,2346.2590205598644,None,0.005420931663138617,0.011096688649558928,2358.796838305714,None,0.006111798556958092,0.012455008656615973,157.0,-25.0,1,0,0,1.1636081213100624,click_2,0.006111798556958092,None,2359.2985532849534,None,2359.2985532849534,None,2359.2985532849534,None,0.005447873547382187,0.011104386330771376,,,04_control,001,control,23,m,16,1,sofia e alice,2023_Mar_24_1133,CPO_EEG,2020.1.3,143.76522232205474,
stimoli/02.subtle/JF1_Sadness.mp4,sad,subtle,femmina,5,10,1646,926,17,,,,,,,,,,,,,,,,,1,0,1,0,,,,,,,,,0,47,47,16,,,0.0018174546203226782,0.005457174912407936,2362.050854731283,None,0.006220849040801113,0.012677599939706852,-74.0,-125.0,1,0,0,2.334467779109218,click_1,0.006220849040801113,None,2372.877762104443,None,2372.877762104443,None,0.00546840069728205,0.011191626718755288,2375.2124588895704,None,0.0061239865517563885,0.012513382739598455,-35.0,-142.0,1,0,0,2.47408286938753,click_2,0.0061239865517563885,None,2375.714314672229,None,2375.714314672229,None,2375.714314672229,None,0.005364802736949059,0.010949791232633288,,,04_control,001,control,23,m,16,1,sofia e alice,2023_Mar_24_1133,CPO_EEG,2020.1.3,143.76522232205474,
stimoli/01.full/M02-Neutral-Face Forward.mp4,neutral,full,maschio,3,6,720,576,55,,,,,,,,,,,,,,,,,1,0,1,0,,,,,,,,,0,48,48,54,,,0.00183653845488152,0.0059374781494625495,2379.7708223881928,None,0.006066895415642648,0.012397596783557674,0.0,1.0,1,0,0,5.728419710938397,click_1,0.006066895415642648,None,2385.7919287887507,None,2385.7919287887507,None,0.005444666179755586,0.011143836947667296,2391.5207131773395,None,0.006081970041122986,0.012407218884618487,-47.0,79.0,1,0,0,1.5468362209257975,click_2,0.006081970041122986,None,2392.0224506081486,None,2392.0224506081486,None,2392.0224506081486,None,0.0054055362998042256,0.011052426982132602,,,04_control,001,control,23,m,16,1,sofia e alice,2023_Mar_24_1133,CPO_EEG,2020.1.3,143.76522232205474,
stimoli/02.subtle/JM1_Surprise.mp4,surprised,subtle,maschio,7,10,1646,926,23,,,,,,,,,,,,,,,,,1,0,1,0,,,,,,,,,0,49,49,22,,,0.0011876880716954474,0.004633041911802138,2395.1516933936573,None,0.006210906202795741,0.012657072789806989,-96.0,19.0,1,0,0,11.680457704127548,click_1,0.006210906202795741,None,2405.5732937929106,None,2405.5732937929106,None,0.0054183657694011345,0.011067822345466993,2417.25400648273,None,0.006111798556958092,0.012467838125303388,-2.0,4.0,1,0,0,0.5084571858178606,click_2,0.006111798556958092,None,2417.7557503282733,None,2417.7557503282733,None,2417.7557503282733,None,0.005366727156797424,0.010949791231723793,,,04_control,001,control,23,m,16,1,sofia e alice,2023_Mar_24_1133,CPO_EEG,2020.1.3,143.76522232205474,
stimoli/02.subtle/JM1_Happiness.mp4,happy,subtle,maschio,7,10,1646,926,15,,,,,,,,,,,,,,,,,1,0,1,0,,,,,,,,,0,50,50,14,,,0.004089874278179195,0.007730236043244076,2419.864150038071,None,0.006198076735017821,0.012656110579882807,-95.0,18.0,1,0,0,7.771053318630948,click_1,0.006198076735017821,None,2430.285977198185,None,2430.285977198185,None,0.0054526845988220884,0.011138063687212707,2438.057243165261,None,0.006090309197134047,0.012438009610377776,85.0,53.0,1,0,0,11.256162154221784,click_2,0.006090309197134047,None,2438.5591095322307,None,2438.5591095322307,None,2438.5591095322307,None,0.005365123473893618,0.010961017017507402,,,04_control,001,control,23,m,16,1,sofia e alice,2023_Mar_24_1133,CPO_EEG,2020.1.3,143.76522232205474,
stimoli/02.subtle/JM1_Anger.mp4,angry,subtle,maschio,7,10,1646,926,7,,,,,,,,,,,,,,,,,1,0,1,0,,,,,,,,,0,51,51,6,,,0.0060158982769280556,0.009780064416190726,2451.4000735128557,None,0.006205132941431657,0.012650658055463282,-20.0,96.0,1,0,0,1.3727849120314204,click_1,0.006205132941431657,None,2461.823168865958,None,2461.823168865958,None,0.00546294817377202,0.011149930945066444,2463.196159690963,None,0.006111798556958092,0.012462064864848799,-100.0,20.0,1,0,0,1.3726008091543918,click_2,0.006111798556958092,None,2463.6979057816643,None,2463.6979057816643,None,2463.6979057816643,None,0.005413233981016674,0.011052426982132602,,,04_control,001,control,23,m,16,1,sofia e alice,2023_Mar_24_1133,CPO_EEG,2020.1.3,143.76522232205474,
stimoli/01.full/M02-Sadness-Face Forward.mp4,sad,full,maschio,3,6,720,576,47,,,,,,,,,,,,,,,,,1,0,1,0,,,,,,,,,0,52,52,46,,,0.0003444712365308078,0.004074318546372524,2466.6539638888935,None,0.006191662000674114,0.012593246183314477,-51.0,-78.0,1,0,0,6.167547409697363,click_1,0.006191662000674114,None,2472.3162909877465,None,2472.3162909877465,None,0.00547545690460538,0.011159553046127257,2478.484089855033,None,0.006123345078776765,0.012467517389268323,-56.0,-37.0,1,0,0,13.22880748163334,click_2,0.006123345078776765,None,2478.985912601809,None,2478.985912601809,None,2478.985912601809,None,0.005357425793590664,0.010945942392027064,,,04_control,001,control,23,m,16,1,sofia e alice,2023_Mar_24_1133,CPO_EEG,2020.1.3,143.76522232205474,
stimoli/01.full/F03-Surprise-Face Forward.mp4,surprised,full,femmina,2,6,720,576,50,,,,,,,,,,,,,,,,,1,0,1,0,,,,,,,,,0,53,53,49,,,0.0026903396028501447,0.006963194178752019,2493.796488381953,None,0.0062035292576183565,0.012648092160816304,52.0,-208.0,1,0,0,1.212408213168601,click_1,0.0062035292576183565,None,2499.8201658080543,None,2499.8201658080543,None,0.0055075305772334104,0.011250642274717393,2501.0328383082806,None,0.006132004969913396,0.012496062956415699,-55.0,-35.0,1,0,0,2.201934234860346,click_2,0.006132004969913396,None,2501.5346052468676,None,2501.5346052468676,None,2501.5346052468676,None,0.005418686505436199,0.011076161499659065,,,04_control,001,control,23,m,16,1,sofia e alice,2023_Mar_24_1133,CPO_EEG,2020.1.3,143.76522232205474,
stimoli/01.full/M03-Anger-Face Forward.mp4,angry,full,maschio,4,6,720,576,36,,,,,,,,,,,,,,,,,1,0,1,0,,,,,,,,,0,54,54,35,,,0.004401790736665134,0.007948818116346956,2505.3158041094066,None,0.006169210429106897,0.012580416713717568,-10.0,55.0,1,0,0,3.03841624056804,click_1,0.006169210429106897,None,2511.34178859473,None,2511.34178859473,None,0.0054549297547055176,0.011134856318676611,2514.380450198889,None,0.006121099921074347,0.012506968005254748,-92.0,15.0,1,0,0,4.411202114810294,click_2,0.006121099921074347,None,2514.8822408719934,None,2514.8822408719934,None,2514.8822408719934,None,0.005290391817652562,0.010834967486516689,,,04_control,001,control,23,m,16,1,sofia e alice,2023_Mar_24_1133,CPO_EEG,2020.1.3,143.76522232205474,
stimoli/01.full/F03-Disgust-Face Forward.mp4,disgusted,full,femmina,2,6,720,576,38,,,,,,,,,,,,,,,,,1,0,1,0,,,,,,,,,0,55,55,37,,,0.0040082467821775936,0.007844578683034342,2520.8732615267963,None,0.0061890961060271366,0.012607679334905697,-19.0,137.0,1,0,0,1.6515137810947635,click_1,0.0061890961060271366,None,2526.895624253084,None,2526.895624253084,None,0.005476739851474122,0.011178155776178755,2528.547397189448,None,0.006048613422535709,0.012326393231887778,8.0,6.0,1,0,0,14.901532223456343,click_2,0.006048613422535709,None,2529.0492690089422,None,2529.0492690089422,None,2529.0492690089422,None,0.005297127288940828,0.010863833791518118,,,04_control,001,control,23,m,16,1,sofia e alice,2023_Mar_24_1133,CPO_EEG,2020.1.3,143.76522232205474,
,,,,,,,,,,,,,,,,,,,,,,,,,1,0,1,0,,,,,,,,,,,,,,,,,,,,,,,,,,,,,,,,,,,,,,,,,,,,,,,,,,,,,,,,,,,04_control,001,control,23,m,16,1,sofia e alice,2023_Mar_24_1133,CPO_EEG,2020.1.3,143.76522232205474,
