file,file_emotion,file_emotion_level,file_gender,file_id,file_duration,size_w,size_h,trigger,loop_practice_full.thisRepN,loop_practice_full.thisTrialN,loop_practice_full.thisN,loop_practice_full.thisIndex,loop_istr_practice.thisRepN,loop_istr_practice.thisTrialN,loop_istr_practice.thisN,loop_istr_practice.thisIndex,tuto.thisRepN,tuto.thisTrialN,tuto.thisN,tuto.thisIndex,loop_practice.thisRepN,loop_practice.thisTrialN,loop_practice.thisN,loop_practice.thisIndex,exp_blocks.thisRepN,exp_blocks.thisTrialN,exp_blocks.thisN,exp_blocks.thisIndex,istr_1.thisRepN,istr_1.thisTrialN,istr_1.thisN,istr_1.thisIndex,istr_2.thisRepN,istr_2.thisTrialN,istr_2.thisN,istr_2.thisIndex,exp.thisRepN,exp.thisTrialN,exp.thisN,exp.thisIndex,img_tutorial.started,img_tutorial.stopped,p_port.started,p_port.stopped,mov_target.started,mov_target.stopped,p_port_2.started,p_port_2.stopped,primary.x,primary.y,primary.leftButton,primary.midButton,primary.rightButton,primary.time,primary.clicked_name,primary.started,primary.stopped,img_primary_wheel.started,img_primary_wheel.stopped,click_1.started,click_1.stopped,p_port_4.started,p_port_4.stopped,txt_iwi.started,txt_iwi.stopped,p_port_3.started,p_port_3.stopped,secondary.x,secondary.y,secondary.leftButton,secondary.midButton,secondary.rightButton,secondary.time,secondary.clicked_name,secondary.started,secondary.stopped,img_secondary_wheel.started,img_secondary_wheel.stopped,click_2.started,click_2.stopped,primary_pos.started,primary_pos.stopped,p_port_5.started,p_port_5.stopped,kb_end_practice.keys,kb_end_practice.rt,participant,session,group,age,sex,education,practice,experimenter,date,expName,psychopyVersion,frameRate,
stimoli/03.practice/F04-Joy-Face Forward.mp4,joy,full,femmina,9,6,700,700,59,0,0,0,0,,,,,,,,,0,0,0,2,,,,,,,,,,,,,,,,,185.8859707643005,None,0.004183291464869399,0.017277646773436572,192.33550556925456,None,0.00583953850036778,0.015375331320683472,110.0,86.0,1,0,0,3.5739260486125204,click_1,0.00583953850036778,None,198.35059490055846,None,198.35059490055846,None,0.004747112737277348,0.009696385181086953,201.92160257512205,None,0.005877385310668615,0.011988362425654486,113.0,87.0,1,0,0,2.682833776803818,click_2,0.005877385310668615,None,202.42344231504467,None,202.42344231504467,None,202.42344231504467,None,0.004651854236726649,0.009505226707915426,,,04,001,moebius,23,m,13,1,sofia,2022_Nov_07_1031,CPO_EEG,2020.1.3,143.72923235788303,
stimoli/03.practice/F04-Disgust-Face Forward.mp4,disgust,full,femmina,9,6,700,700,58,0,0,0,0,,,,,,,,,0,1,1,1,,,,,,,,,,,,,,,,,,,0.00512837125279475,0.00984222369879717,206.68628617577815,None,0.006172141410388576,0.012548046205665742,-118.0,171.0,1,0,0,5.177909842480403,click_1,0.006172141410388576,None,212.70861290794346,None,212.70861290794346,None,0.005530028558496269,0.011289158620456874,217.8868992941243,None,0.006095485579862725,0.012400187051753164,-104.0,169.0,1,0,0,4.174346789692208,click_2,0.006095485579862725,None,218.38868964075027,None,218.38868964075027,None,218.38868964075027,None,0.005357152020224021,0.010981252356941695,,,04,001,moebius,23,m,13,1,sofia,2022_Nov_07_1031,CPO_EEG,2020.1.3,143.72923235788303,
stimoli/03.practice/F04-Surprise-Face Forward.mp4,surprise,full,femmina,9,6,700,700,61,0,0,0,0,,,,,,,,,0,2,2,4,,,,,,,,,,,,,,,,,,,0.002339702716199099,0.005994806647322548,224.1580425115908,None,0.006188178194861393,0.012611872607521946,26.0,-100.0,1,0,0,7.2200513048810535,click_1,0.006188178194861393,None,230.38175565585334,None,230.38175565585334,None,0.005411677087977296,0.011065285108088574,237.60202441953243,None,0.006109277215728071,0.012458560949198727,17.0,-94.0,1,0,0,4.571621562675318,click_2,0.006109277215728071,None,238.1038086721801,None,238.1038086721801,None,238.1038086721801,None,0.005309362402840634,0.010882465764552762,,,04,001,moebius,23,m,13,1,sofia,2022_Nov_07_1031,CPO_EEG,2020.1.3,143.72923235788303,
stimoli/03.practice/F04-Neutral-Face Forward.mp4,neutral,full,femmina,9,6,700,700,62,0,0,0,0,,,,,,,,,0,3,3,5,,,,,,,,,,,,,,,,,,,0.0057017504468603875,0.009635252957195917,244.26050762196246,None,0.006173103617584275,0.012551253562378406,-3.0,0.0,1,0,0,2.1880582404692177,click_1,0.006173103617584275,None,250.28644487579822,None,250.28644487579822,None,0.005433166379589238,0.011079397478169994,252.47478151484756,None,0.006101900295107043,0.012427128851413727,1.0,0.0,1,0,0,1.9650523184063786,click_2,0.006101900295107043,None,252.97660682166315,None,252.97660682166315,None,252.97660682166315,None,0.005418733272563259,0.011045399494832964,,,04,001,moebius,23,m,13,1,sofia,2022_Nov_07_1031,CPO_EEG,2020.1.3,143.72923235788303,
stimoli/03.practice/F04-Sadness-Face Forward.mp4,sadness,full,femmina,9,6,700,700,60,0,0,0,0,,,,,,,,,0,4,4,3,,,,,,,,,,,,,,,,,,,0.004412874072841078,0.01772885774335009,256.5715724901147,None,0.006179839067044668,0.012575950211612508,-31.0,-149.0,1,0,0,6.572078931770193,click_1,0.006179839067044668,None,262.58946697576994,None,262.58946697576994,None,0.005413922237494262,0.011089019549217483,269.1618217402347,None,0.006037111684236152,0.012292419860386872,-38.0,-135.0,1,0,0,2.3971172917590593,click_2,0.006037111684236152,None,269.6635338273518,None,269.6635338273518,None,269.6635338273518,None,0.005332776107934478,0.01088374870687403,,,04,001,moebius,23,m,13,1,sofia,2022_Nov_07_1031,CPO_EEG,2020.1.3,143.72923235788303,
stimoli/03.practice/F04-Anger-Face Forward.mp4,anger,full,femmina,9,6,700,700,57,0,0,0,0,,,,,,,,,0,5,5,0,,,,,,,,,,,,,,,,,,,0.0008805477646092186,0.004764015508044395,273.6437367375793,None,0.006193951438035583,0.012598722445545718,-23.0,102.0,1,0,0,4.3208492311323425,click_1,0.006193951438035583,None,279.66809661328716,None,279.66809661328716,None,0.005395640304413973,0.011017816226740251,283.9891677935175,None,0.006111843099461112,0.01244541078358452,-14.0,100.0,1,0,0,1.6164709965132715,click_2,0.006111843099461112,None,284.4909453107157,None,284.4909453107157,None,284.4909453107157,None,0.005379924255066726,0.011005307534105668,,,04,001,moebius,23,m,13,1,sofia,2022_Nov_07_1031,CPO_EEG,2020.1.3,143.72923235788303,
,,,,,,,,,0,0,0,0,,,,,,,,,,,,,,,,,,,,,,,,,,,,,,,,,,,,,,,,,,,,,,,,,,,,,,,,,,,,,,,,,,,,,,,,,n,114.00175442422824,04,001,moebius,23,m,13,1,sofia,2022_Nov_07_1031,CPO_EEG,2020.1.3,143.72923235788303,
,,,,,,,,,,,,,,,,,,,,,,,,,0,0,0,0,0,0,0,0,,,,,,,,,,,,,,,,,,,,,,,,,,,,,,,,,,,,,,,,,,,,,,,,,,,,,,,04,001,moebius,23,m,13,1,sofia,2022_Nov_07_1031,CPO_EEG,2020.1.3,143.72923235788303,
stimoli/01.full/F01-Surprise-Face Forward.mp4,surprised,full,femmina,1,6,720,576,49,,,,,,,,,,,,,,,,,0,0,0,0,,,,,,,,,0,0,0,48,,,0.0024014443370106164,0.01400598236159567,408.737500609398,None,0.0059203638938925,0.012050585150063853,15.0,-135.0,1,0,0,5.8879917198873954,click_1,0.0059203638938925,None,414.7536660089445,None,414.7536660089445,None,0.004535427181508567,0.009318237800471252,420.6421510203245,None,0.005809068608868984,0.011844031365399132,22.0,-130.0,1,0,0,3.12890142894139,click_2,0.005809068608868984,None,421.14395163049176,None,421.14395163049176,None,421.14395163049176,None,0.004389813176203461,0.008996219165965158,,,04,001,moebius,23,m,13,1,sofia,2022_Nov_07_1031,CPO_EEG,2020.1.3,143.72923235788303,
stimoli/02.subtle/JF1_Disgust.mp4,disgusted,subtle,femmina,5,10,1646,926,9,,,,,,,,,,,,,,,,,0,0,0,0,,,,,,,,,0,1,1,8,,,0.005452442592286388,0.00965151425498334,426.06910859853906,None,0.006189461139001651,0.012589100375407725,-25.0,-99.0,1,0,0,8.481383538304726,click_1,0.006189461139001651,None,436.8950036435572,None,436.8950036435572,None,0.005394357360273716,0.010994081784701848,445.37665659984214,None,0.006132370185696345,0.012535537514850148,-25.0,100.0,1,0,0,3.3449153129477054,click_2,0.006132370185696345,None,445.8784886421072,None,445.8784886421072,None,445.8784886421072,None,0.005347850686121092,0.010943405545731366,,,04,001,moebius,23,m,13,1,sofia,2022_Nov_07_1031,CPO_EEG,2020.1.3,143.72923235788303,
stimoli/02.subtle/JF2_Happiness.mp4,happy,subtle,femmina,6,9,1646,926,14,,,,,,,,,,,,,,,,,0,0,0,0,,,,,,,,,0,2,2,13,,,0.006718675027514109,0.018433866865962045,450.8693935401261,None,0.006174065823870478,0.01258589301687607,91.0,56.0,1,0,0,8.077712654177049,click_1,0.006174065823870478,None,460.3681603113955,None,460.3681603113955,None,0.005419054008598323,0.011051172737097659,468.4460936317282,None,0.006101579559071979,0.012413337216457876,111.0,81.0,1,0,0,2.829503963010211,click_2,0.006101579559071979,None,468.9479057883809,None,468.9479057883809,None,468.9479057883809,None,0.005295570768794278,0.01080356478541944,,,04,001,moebius,23,m,13,1,sofia,2022_Nov_07_1031,CPO_EEG,2020.1.3,143.72923235788303,
stimoli/01.full/F01-Disgust-Face Forward.mp4,disgusted,full,femmina,1,6,720,576,37,,,,,,,,,,,,,,,,,0,0,0,0,,,,,,,,,0,3,3,36,,,0.0042556815105854184,0.015998135882000497,473.38544315408853,None,0.006183367159792397,0.012607382308488013,-116.0,73.0,1,0,0,5.156931483158587,click_1,0.006183367159792397,None,479.3995077348618,None,479.3995077348618,None,0.0054084697303551366,0.011110829575954995,484.5567246727851,None,0.006119220021901128,0.012452787706024537,-26.0,137.0,1,0,0,4.836520376979934,click_2,0.006119220021901128,None,485.0584800592205,None,485.0584800592205,None,485.0584800592205,None,0.005173370470402006,0.010580653480246838,,,04,001,moebius,23,m,13,1,sofia,2022_Nov_07_1031,CPO_EEG,2020.1.3,143.72923235788303,
stimoli/02.subtle/JF1_Fear.mp4,fear,subtle,femmina,5,10,1646,926,1,,,,,,,,,,,,,,,,,0,0,0,0,,,,,,,,,0,4,4,0,,,0.00556903001779574,0.009319392449469888,491.5205860995711,None,0.006177914653562766,0.012557989012748294,0.0,0.0,1,0,0,7.115292292849517,click_1,0.006177914653562766,None,502.34788275955816,None,502.34788275955816,None,0.005369981447074679,0.010971630285894207,509.46338353060673,None,0.006185933046253922,0.012583006397107965,-16.0,-66.0,1,0,0,6.05656205978994,click_2,0.006185933046253922,None,509.96520210197286,None,509.96520210197286,None,509.96520210197286,None,0.005338228615073604,0.010892087834690756,,,04,001,moebius,23,m,13,1,sofia,2022_Nov_07_1031,CPO_EEG,2020.1.3,143.72923235788303,
stimoli/01.full/M02-Disgust-Face Forward.mp4,disgusted,full,maschio,3,6,720,576,39,,,,,,,,,,,,,,,,,0,0,0,0,,,,,,,,,0,5,5,38,,,0.003973690692873788,0.015863042011005746,517.6572599165056,None,0.006180480538205302,0.012568252554046921,-26.0,128.0,1,0,0,6.606417857024098,click_1,0.006180480538205302,None,523.6750559363045,None,523.6750559363045,None,0.0055168783947010525,0.011263179028901504,530.2818233952312,None,0.006113446779636433,0.01245663653480733,-33.0,140.0,1,0,0,4.5017332556726615,click_2,0.006113446779636433,None,530.7835989880141,None,530.7835989880141,None,530.7835989880141,None,0.005301023274114414,0.01081190391232667,,,04,001,moebius,23,m,13,1,sofia,2022_Nov_07_1031,CPO_EEG,2020.1.3,143.72923235788303,
stimoli/02.subtle/JF2_Disgust.mp4,disgusted,subtle,femmina,6,10,1646,926,10,,,,,,,,,,,,,,,,,0,0,0,0,,,,,,,,,0,6,6,9,,,7.133161670935806e-05,0.011845218086818932,536.9448729116893,None,0.006198121001034451,0.012617004378626007,-22.0,-93.0,1,0,0,3.3380534935813557,click_1,0.006198121001034451,None,547.364374026567,None,547.364374026567,None,0.0053632459976142854,0.010940839659269841,550.7026324702547,None,0.0061339738640526775,0.012498652909926022,-15.0,93.0,1,0,0,3.763047848633505,click_2,0.0061339738640526775,None,551.2044128740736,None,551.2044128740736,None,551.2044128740736,None,0.005310003873091773,0.010854241022570932,,,04,001,moebius,23,m,13,1,sofia,2022_Nov_07_1031,CPO_EEG,2020.1.3,143.72923235788303,
stimoli/01.full/F03-Joy-Face Forward.mp4,happy,full,femmina,2,6,720,576,42,,,,,,,,,,,,,,,,,0,0,0,0,,,,,,,,,0,7,7,41,,,0.0024380723525609937,0.006491530010862334,556.6373348531924,None,0.006215440728738031,0.012657096341172291,153.0,96.0,1,0,0,2.8083937813198645,click_1,0.006215440728738031,None,562.66161518645,None,562.66161518645,None,0.00544920316497155,0.011111471048025123,565.4701949944701,None,0.006118578550740494,0.012466258605854819,157.0,112.0,1,0,0,1.8326741145774577,click_2,0.006118578550740494,None,565.971938192949,None,565.971938192949,None,565.971938192949,None,0.0053452847996595665,0.010907162411967875,,,04,001,moebius,23,m,13,1,sofia,2022_Nov_07_1031,CPO_EEG,2020.1.3,143.72923235788303,
stimoli/01.full/M02-Surprise-Face Forward.mp4,surprised,full,maschio,3,6,720,576,51,,,,,,,,,,,,,,,,,0,0,0,0,,,,,,,,,0,8,8,50,,,0.005316482734087913,0.009146066881839943,569.4170064326745,None,0.0061785561247234,0.012601288330188254,26.0,-127.0,1,0,0,7.777404619620029,click_1,0.0061785561247234,None,575.4441663309635,None,575.4441663309635,None,0.005417129594206926,0.01104764464434993,583.2217791080466,None,0.0061063905950504704,0.012435147243195388,85.0,53.0,1,0,0,3.7073848109839673,click_2,0.0061063905950504704,None,583.7235829255715,None,583.7235829255715,None,583.7235829255715,None,0.005305513574057841,0.010824091868016694,,,04,001,moebius,23,m,13,1,sofia,2022_Nov_07_1031,CPO_EEG,2020.1.3,143.72923235788303,
stimoli/02.subtle/JF2_Anger.mp4,angry,subtle,femmina,6,9,1646,926,6,,,,,,,,,,,,,,,,,0,0,0,0,,,,,,,,,0,9,9,5,,,0.0015781158181198407,0.005267859203740954,589.0605895378585,None,0.006165085225802613,0.012570497704473382,-24.0,100.0,1,0,0,6.202720351834614,click_1,0.006165085225802613,None,598.5651555311506,None,598.5651555311506,None,0.005393715888203587,0.011038022573302442,604.7681590926004,None,0.006108315008532372,0.012430656943251961,-19.0,-66.0,1,0,0,2.8501914150601806,click_2,0.006108315008532372,None,605.2699975495789,None,605.2699975495789,None,605.2699975495789,None,0.005448882428936486,0.011140016524223029,,,04,001,moebius,23,m,13,1,sofia,2022_Nov_07_1031,CPO_EEG,2020.1.3,143.72923235788303,
stimoli/02.subtle/JM1_Surprise.mp4,surprised,subtle,maschio,7,10,1646,926,23,,,,,,,,,,,,,,,,,0,0,0,0,,,,,,,,,0,10,10,22,,,0.0007381090445051086,0.01236734371741477,609.7588795675965,None,0.006156746097985888,0.012541310757114843,14.0,-101.0,1,0,0,11.610374773239528,click_1,0.006156746097985888,None,620.1734269197314,None,620.1734269197314,None,0.005408469731264631,0.011140657995383663,631.7841480875168,None,0.0061099186868887045,0.01243418503599969,93.0,-19.0,1,0,0,4.752662747704562,click_2,0.0061099186868887045,None,632.285837723136,None,632.285837723136,None,632.285837723136,None,0.005317701530657359,0.010904917262450908,,,04,001,moebius,23,m,13,1,sofia,2022_Nov_07_1031,CPO_EEG,2020.1.3,143.72923235788303,
stimoli/01.full/F01-Joy-Face Forward.mp4,happy,full,femmina,1,6,720,576,41,,,,,,,,,,,,,,,,,0,0,0,0,,,,,,,,,0,11,11,40,,,0.0035611925204648287,0.007119113536646182,638.7135804623213,None,0.006204535715369275,0.012623419093870325,114.0,76.0,1,0,0,3.860879931952695,click_1,0.006204535715369275,None,644.7409459521868,None,644.7409459521868,None,0.00539499883143435,0.011005949004356808,648.6020629078148,None,0.006100296615841216,0.012436109450391086,111.0,81.0,1,0,0,1.9721607835190298,click_2,0.006100296615841216,None,649.1038487641408,None,649.1038487641408,None,649.1038487641408,None,0.005361000849006814,0.010957517915812787,,,04,001,moebius,23,m,13,1,sofia,2022_Nov_07_1031,CPO_EEG,2020.1.3,143.72923235788303,
stimoli/01.full/F03-Fear-Face Forward.mp4,fear,full,femmina,2,6,720,576,30,,,,,,,,,,,,,,,,,0,0,0,0,,,,,,,,,0,12,12,29,,,0.004582447032589698,0.016498098677402595,652.7788123285663,None,0.006209346751347766,0.012642021763895173,-110.0,-164.0,1,0,0,6.153651319250457,click_1,0.006209346751347766,None,658.7916789615347,None,658.7916789615347,None,0.005400130602538411,0.01099857208373578,664.9455480603183,None,0.0060460922850325005,0.012337002121967089,-18.0,-98.0,1,0,0,12.20276525483132,click_2,0.0060460922850325005,None,665.4473534815215,None,665.4473534815215,None,665.4473534815215,None,0.0052689497051687795,0.010776622985758877,,,04,001,moebius,23,m,13,1,sofia,2022_Nov_07_1031,CPO_EEG,2020.1.3,143.72923235788303,
stimoli/02.subtle/JF1_Sadness.mp4,sad,subtle,femmina,5,10,1646,926,17,,,,,,,,,,,,,,,,,0,0,0,0,,,,,,,,,0,13,13,16,,,0.002719165112466726,0.014588310082217504,679.2732312068129,None,0.0061811220102754305,0.012591024788889627,-25.0,-92.0,1,0,0,4.390537719799795,click_1,0.0061811220102754305,None,690.0915594554162,None,690.0915594554162,None,0.005401092810643604,0.01105598377307615,694.4823710834962,None,0.006126596942522156,0.01251148233677668,-1.0,6.0,1,0,0,2.683056688108991,click_2,0.006126596942522156,None,694.9841983147262,None,694.9841983147262,None,694.9841983147262,None,0.005301664746184542,0.010821205247339094,,,04,001,moebius,23,m,13,1,sofia,2022_Nov_07_1031,CPO_EEG,2020.1.3,143.72923235788303,
stimoli/02.subtle/JM2_Disgust.mp4,disgusted,subtle,maschio,8,10,1646,926,12,,,,,,,,,,,,,,,,,0,0,0,0,,,,,,,,,0,14,14,11,,,0.0006437806778194499,0.004665485504119715,699.2779299846816,None,0.006209026015312702,0.012630796014491352,,,,,,,,0.006209026015312702,20.008352502635717,709.8996389157592,None,709.8996389157592,None,0.006047054491318704,0.012346624193014577,729.9023500945523,None,0.006140709313513071,0.012514048223238206,-54.0,-84.0,1,0,0,5.394177749153641,click_2,0.006140709313513071,None,730.4041478180989,None,730.4041478180989,None,730.4041478180989,None,0.005439581093014567,0.011150921537591785,,,04,001,moebius,23,m,13,1,sofia,2022_Nov_07_1031,CPO_EEG,2020.1.3,143.72923235788303,
stimoli/02.subtle/JF1_Surprise.mp4,surprised,subtle,femmina,5,10,1646,926,21,,,,,,,,,,,,,,,,,0,0,0,0,,,,,,,,,0,15,15,20,,,0.004320951224144665,0.008241624307629536,737.432380898008,None,0.006203252772138512,0.012657417076297861,89.0,55.0,1,0,0,8.356492588439323,click_1,0.006203252772138512,None,748.2569064016279,None,748.2569064016279,None,0.005386980439652689,0.011011401511495933,756.6136328063858,None,0.006118899285866064,0.012453108441150107,20.0,-103.0,1,0,0,5.680244156837034,click_2,0.006118899285866064,None,757.1154180212397,None,757.1154180212397,None,757.1154180212397,None,0.0052856279608022305,0.01078335843521927,,,04,001,moebius,23,m,13,1,sofia,2022_Nov_07_1031,CPO_EEG,2020.1.3,143.72923235788303,
stimoli/01.full/M03-Joy-Face Forward.mp4,happy,full,maschio,4,6,720,576,44,,,,,,,,,,,,,,,,,0,0,0,0,,,,,,,,,0,16,16,43,,,0.006114441059253295,0.01773790248989826,764.4626663656027,None,0.006188819666022027,0.012581402717842138,158.0,102.0,1,0,0,2.508690654275597,click_1,0.006188819666022027,None,770.4760769663017,None,770.4760769663017,None,0.005434449322820001,0.011129432246889337,772.9850505094564,None,0.0060457715480879415,0.012302683402594994,158.0,101.0,1,0,0,1.2888875988182917,click_2,0.0060457715480879415,None,773.4868020470631,None,773.4868020470631,None,773.4868020470631,None,0.005349775098693499,0.010906200204772176,,,04,001,moebius,23,m,13,1,sofia,2022_Nov_07_1031,CPO_EEG,2020.1.3,143.72923235788303,
stimoli/01.full/M02-Fear-Face Forward.mp4,fear,full,maschio,3,6,720,576,31,,,,,,,,,,,,,,,,,0,0,0,0,,,,,,,,,0,17,17,30,,,0.0043055238375018234,0.01596651134423155,776.397223134537,None,0.006188819666931522,0.012619249529961962,-83.0,-116.0,1,0,0,4.508934734135437,click_1,0.006188819666931522,None,782.4126354466816,None,782.4126354466816,None,0.005404620902481838,0.011038343310247,786.9217847529944,None,0.0060916367519894266,0.012446052256564144,-73.0,-119.0,1,0,0,10.196138213989798,click_2,0.0060916367519894266,None,787.4235670812277,None,787.4235670812277,None,787.4235670812277,None,0.005164069133570592,0.010546334759965248,,,04,001,moebius,23,m,13,1,sofia,2022_Nov_07_1031,CPO_EEG,2020.1.3,143.72923235788303,
stimoli/01.full/F03-Neutral-Face Forward.mp4,neutral,full,femmina,2,6,720,576,54,,,,,,,,,,,,,,,,,0,0,0,0,,,,,,,,,0,18,18,53,,,0.004664427074203559,0.00897800137863669,799.3011188543833,None,0.0061577083042720915,0.012516934843915806,2.0,4.0,1,0,0,2.6618913398797304,click_1,0.0061577083042720915,None,805.3268485922263,None,805.3268485922263,None,0.005372868069571268,0.010962008215756214,807.9890119159718,None,0.006121785906543664,0.01245471211950644,0.0,0.0,1,0,0,0.7662834302809642,click_2,0.006121785906543664,None,808.4908349776379,None,808.4908349776379,None,808.4908349776379,None,0.005360680113881244,0.010958159387882915,,,04,001,moebius,23,m,13,1,sofia,2022_Nov_07_1031,CPO_EEG,2020.1.3,143.72923235788303,
stimoli/01.full/F03-Surprise-Face Forward.mp4,surprised,full,femmina,2,6,720,576,50,,,,,,,,,,,,,,,,,0,0,0,0,,,,,,,,,0,19,19,49,,,0.003197702762008703,0.007029532059277699,810.8717079688704,None,0.0062000454163353425,0.012655171926780895,18.0,-136.0,1,0,0,2.8572094327082596,click_1,0.0062000454163353425,None,816.8956066266555,None,816.8956066266555,None,0.005436694471427472,0.011115319874988927,819.7530501964184,None,0.006051544791262131,0.012348869342531543,-37.0,-54.0,1,0,0,7.519362813646694,click_2,0.006051544791262131,None,820.2548136012456,None,820.2548136012456,None,820.2548136012456,None,0.005329889487256878,0.010891446364439616,,,04,001,moebius,23,m,13,1,sofia,2022_Nov_07_1031,CPO_EEG,2020.1.3,143.72923235788303,
stimoli/01.full/F01-Sadness-Face Forward.mp4,sad,full,femmina,1,6,720,576,45,,,,,,,,,,,,,,,,,0,0,0,0,,,,,,,,,0,20,20,44,,,0.002746299351201742,0.01461544432095252,829.3837233693157,None,0.006187857459735824,0.012590704052854562,-25.0,-95.0,1,0,0,10.851384872565177,click_1,0.006187857459735824,None,835.3968828339694,None,835.3968828339694,None,0.00540333796016057,0.011049248323615757,846.2485303890653,None,0.0060865049808853655,0.012385112474476045,-54.0,32.0,1,0,0,9.506803124735598,click_2,0.0060865049808853655,None,846.750351205581,None,846.750351205581,None,846.750351205581,None,0.005288193847263756,0.01080933802677464,,,04,001,moebius,23,m,13,1,sofia,2022_Nov_07_1031,CPO_EEG,2020.1.3,143.72923235788303,
stimoli/02.subtle/JM1_Happiness.mp4,happy,subtle,maschio,7,10,1646,926,15,,,,,,,,,,,,,,,,,0,0,0,0,,,,,,,,,0,21,21,14,,,0.0026207954751953366,0.006529601338115754,857.8658106017256,None,0.006136219012660149,0.012508274980064016,91.0,50.0,1,0,0,9.457103205047133,click_1,0.006136219012660149,None,868.2864961935084,None,868.2864961935084,None,0.005409111202425265,0.011052455680328421,877.7439146817405,None,0.006107673536462244,0.012428411793734995,-16.0,-64.0,1,0,0,2.550379879351567,click_2,0.006107673536462244,None,878.2456402397565,None,878.2456402397565,None,878.2456402397565,None,0.005463315534143476,0.011131677396406303,,,04,001,moebius,23,m,13,1,sofia,2022_Nov_07_1031,CPO_EEG,2020.1.3,143.72923235788303,
stimoli/02.subtle/JM1_Fear.mp4,fear,subtle,maschio,7,10,1646,926,3,,,,,,,,,,,,,,,,,0,0,0,0,,,,,,,,,0,22,22,2,,,0.006655297655015602,0.010033927421318367,882.4475539413279,None,0.006188178195770888,0.012582044189002772,-53.0,-82.0,1,0,0,3.895868988451184,click_1,0.006188178195770888,None,892.872520071639,None,892.872520071639,None,0.005378962046961533,0.010983497506458662,896.7685972175532,None,0.006103824708588945,0.012423921493791568,20.0,-89.0,1,0,0,8.175544737497148,click_2,0.006103824708588945,None,897.2704395233604,None,897.2704395233604,None,897.2704395233604,None,0.005332134637683339,0.01092095404783322,,,04,001,moebius,23,m,13,1,sofia,2022_Nov_07_1031,CPO_EEG,2020.1.3,143.72923235788303,
stimoli/01.full/M03-Disgust-Face Forward.mp4,disgusted,full,maschio,4,6,720,576,40,,,,,,,,,,,,,,,,,0,0,0,0,,,,,,,,,0,23,23,39,,,0.002169231695916096,0.006466769215876411,907.0757959376897,None,0.00615578389079019,0.012541310756205348,-28.0,139.0,1,0,0,4.055886269690745,click_1,0.00615578389079019,None,913.1025555578362,None,913.1025555578362,None,0.005347529950086027,0.010891125628404552,917.158668266924,None,0.006124993264165823,0.012478767296670412,-125.0,76.0,1,0,0,3.05230974600272,click_2,0.006124993264165823,None,917.6605352693796,None,917.6605352693796,None,917.6605352693796,None,0.005309362402840634,0.01082601628240809,,,04,001,moebius,23,m,13,1,sofia,2022_Nov_07_1031,CPO_EEG,2020.1.3,143.72923235788303,
stimoli/01.full/M02-Joy-Face Forward.mp4,happy,full,maschio,3,6,720,576,43,,,,,,,,,,,,,,,,,0,0,0,0,,,,,,,,,0,24,24,42,,,0.002179559385695029,0.005771157650087844,922.3145833386789,None,0.006211271165739163,0.012659020755563688,123.0,73.0,1,0,0,5.72860885384398,click_1,0.006211271165739163,None,928.3401296157072,None,928.3401296157072,None,0.0054392603578889975,0.011081001157435821,934.0689238547811,None,0.006121144436292525,0.012498652909926022,17.0,92.0,1,0,0,5.658790787957514,click_2,0.006121144436292525,None,934.5707440298256,None,934.5707440298256,None,934.5707440298256,None,0.005341756707821332,0.010889521949138725,,,04,001,moebius,23,m,13,1,sofia,2022_Nov_07_1031,CPO_EEG,2020.1.3,143.72923235788303,
stimoli/01.full/F01-Anger-Face Forward.mp4,angry,full,femmina,1,6,720,576,33,,,,,,,,,,,,,,,,,0,0,0,0,,,,,,,,,0,25,25,32,,,0.004032449470287247,0.007985516858752817,941.8976416946134,None,0.0062324397194970516,0.012702320072094153,-27.0,137.0,1,0,0,9.903043845852153,click_1,0.0062324397194970516,None,947.9210419291348,None,947.9210419291348,None,0.005425147986898082,0.011102811183263839,957.8242814237583,None,0.006121465172327589,0.01250570909542148,-23.0,143.0,1,0,0,8.02825905950067,click_2,0.006121465172327589,None,958.326052205507,None,958.326052205507,None,958.326052205507,None,0.005352982457225153,0.010951103202387458,,,04,001,moebius,23,m,13,1,sofia,2022_Nov_07_1031,CPO_EEG,2020.1.3,143.72923235788303,
stimoli/01.full/M03-Surprise-Face Forward.mp4,surprised,full,maschio,4,6,720,576,52,,,,,,,,,,,,,,,,,0,0,0,0,,,,,,,,,0,26,26,51,,,0.005668201492881053,0.009641475229727803,967.9530497473879,None,0.006157708305181586,0.012547404735414602,25.0,-140.0,1,0,0,7.826256514142187,click_1,0.006157708305181586,None,973.9736724108288,None,973.9736724108288,None,0.005417129595116421,0.011048927588490187,981.800206361343,None,0.006088429394367267,0.012388640567223774,69.0,-16.0,1,0,0,15.897907905236934,click_2,0.006088429394367267,None,982.3019518049723,None,982.3019518049723,None,982.3019518049723,None,0.005306796517288603,0.010842694538951037,,,04,001,moebius,23,m,13,1,sofia,2022_Nov_07_1031,CPO_EEG,2020.1.3,143.72923235788303,
stimoli/02.subtle/JF1_Happiness.mp4,happy,subtle,femmina,5,10,1646,926,13,,,,,,,,,,,,,,,,,0,0,0,0,,,,,,,,,0,27,27,12,,,9.949221021088306e-05,0.004220945835186285,999.8112608376587,None,0.006201649094691675,0.012656454870011657,123.0,70.0,1,0,0,4.53684739909022,click_1,0.006201649094691675,None,1010.6374708451258,None,1010.6374708451258,None,0.005417771066277055,0.011095113527517242,1015.1745501361202,None,0.006123389585809491,0.012481012446187378,138.0,20.0,1,0,0,7.450043812495096,click_2,0.006123389585809491,None,1015.6763128994762,None,1015.6763128994762,None,1015.6763128994762,None,0.005230461422797816,0.010688420670703636,,,04,001,moebius,23,m,13,1,sofia,2022_Nov_07_1031,CPO_EEG,2020.1.3,143.72923235788303,
stimoli/01.full/M03-Sadness-Face Forward.mp4,sad,full,maschio,4,6,720,576,48,,,,,,,,,,,,,,,,,0,0,0,0,,,,,,,,,0,28,28,47,,,0.001795670836145291,0.005532883104933717,1024.7489104608585,None,0.006173745089654403,0.012553177977679297,,,,,,,,0.006173745089654403,20.009643784527725,1030.772838626327,None,1030.772838626327,None,0.0060573180326173315,0.012358491412669537,1050.7769068378284,None,0.006141671519799274,0.012545801056148775,-28.0,-129.0,1,0,0,12.023048708204442,click_2,0.006141671519799274,None,1051.2787764061695,None,1051.2787764061695,None,1051.2787764061695,None,0.005283382811285264,0.010794263448588026,,,04,001,moebius,23,m,13,1,sofia,2022_Nov_07_1031,CPO_EEG,2020.1.3,143.72923235788303,
stimoli/02.subtle/JM1_Anger.mp4,angry,subtle,maschio,7,10,1646,926,7,,,,,,,,,,,,,,,,,0,0,0,0,,,,,,,,,0,29,29,6,,,0.0019392642061575316,0.005881426580344851,1064.931404578566,None,0.0061994039451747085,0.012623419093870325,1.0,1.0,1,0,0,2.1113982408287484,click_1,0.0061994039451747085,None,1075.3568761883253,None,1075.3568761883253,None,0.005443750657832425,0.011121734590233245,1077.4685358287425,None,0.006066298632504186,0.012308777380894753,-23.0,138.0,1,0,0,2.864158812918504,click_2,0.006066298632504186,None,1077.9702726125079,None,1077.9702726125079,None,1077.9702726125079,None,0.005353944663511356,0.010934104210718942,,,04,001,moebius,23,m,13,1,sofia,2022_Nov_07_1031,CPO_EEG,2020.1.3,143.72923235788303,
stimoli/01.full/M02-Neutral-Face Forward.mp4,neutral,full,maschio,3,6,720,576,55,,,,,,,,,,,,,,,,,0,0,0,0,,,,,,,,,0,30,30,54,,,0.001752018709339609,0.005713425225621904,1082.4372836637767,None,0.006183367159792397,0.01259455288072786,0.0,0.0,1,0,0,4.014067146657908,click_1,0.006183367159792397,None,1088.4606871056549,None,1088.4606871056549,None,0.005398847659307648,0.011052134944293357,1092.4749999358528,None,0.006188178194861393,0.012609627458914474,51.0,34.0,1,0,0,5.54031006160676,click_2,0.006188178194861393,None,1092.976721324305,None,1092.976721324305,None,1092.976721324305,None,0.0053629252633982105,0.010931859060292481,,,04,001,moebius,23,m,13,1,sofia,2022_Nov_07_1031,CPO_EEG,2020.1.3,143.72923235788303,
stimoli/02.subtle/JF2_Neutral.mp4,neutral,subtle,femmina,6,9,1646,926,26,,,,,,,,,,,,,,,,,0,0,0,0,,,,,,,,,0,31,31,25,,,0.00337981648681307,0.006976867257435515,1100.158270875403,None,0.006205177186529909,0.012666718411310285,0.0,0.0,1,0,0,2.752479607624082,click_1,0.006205177186529909,None,1109.6637859256043,None,1109.6637859256043,None,0.005571082726419263,0.011377681670637685,1112.4166103240968,None,0.0061811220102754305,0.01262021173715766,0.0,0.0,1,0,0,1.7490342648352453,click_2,0.0061811220102754305,None,1112.9183859168807,None,1112.9183859168807,None,1112.9183859168807,None,0.005353303192350722,0.010928972439614881,,,04,001,moebius,23,m,13,1,sofia,2022_Nov_07_1031,CPO_EEG,2020.1.3,143.72923235788303,
stimoli/01.full/F03-Sadness-Face Forward.mp4,sad,full,femmina,2,6,720,576,46,,,,,,,,,,,,,,,,,0,0,0,0,,,,,,,,,0,32,32,45,,,0.0002938580382760847,0.0040948967089207144,1116.2780460910017,None,0.006176310974296939,0.012584289339429233,-24.0,-142.0,1,0,0,2.0695733445545557,click_1,0.006176310974296939,None,1122.3018077946472,None,1122.3018077946472,None,0.00546107038462651,0.011162468022121175,1124.371664990288,None,0.006124993264165823,0.012464975662624056,-22.0,141.0,1,0,0,3.4497634895014926,click_2,0.006124993264165823,None,1124.873422301137,None,1124.873422301137,None,1124.873422301137,None,0.005338549350199173,0.010910690504715603,,,04,001,moebius,23,m,13,1,sofia,2022_Nov_07_1031,CPO_EEG,2020.1.3,143.72923235788303,
stimoli/02.subtle/JM2_Sadness.mp4,sad,subtle,maschio,8,10,1646,926,20,,,,,,,,,,,,,,,,,0,0,0,0,,,,,,,,,0,33,33,19,,,0.0018073135433951393,0.00582901836878591,1129.9395118146194,None,0.006193630702000519,0.012647474270124803,0.0,0.0,1,0,0,7.833749862083096,click_1,0.006193630702000519,None,1140.5652171124038,None,1140.5652171124038,None,0.005375433955123299,0.011000175763001607,1148.399171283122,None,0.006196838058713183,0.012607382308488013,-13.0,-60.0,1,0,0,8.000968621786342,click_2,0.006196838058713183,None,1148.9009484795843,None,1148.9009484795843,None,1148.9009484795843,None,0.005334059050255746,0.010896257398599118,,,04,001,moebius,23,m,13,1,sofia,2022_Nov_07_1031,CPO_EEG,2020.1.3,143.72923235788303,
stimoli/01.full/M02-Sadness-Face Forward.mp4,sad,full,maschio,3,6,720,576,47,,,,,,,,,,,,,,,,,0,0,0,0,,,,,,,,,0,34,34,46,,,0.0062876383317416185,0.010080979345730157,1158.4930592796527,None,0.006190102608343295,0.012589100373588735,-19.0,-96.0,1,0,0,5.58215612643653,click_1,0.006190102608343295,None,1164.1604971018323,None,1164.1604971018323,None,0.005445995807349391,0.011139375053062395,1169.7429511917253,None,0.006128521357823047,0.012470107433728117,-11.0,62.0,1,0,0,3.7214384867429544,click_2,0.006128521357823047,None,1170.2447155587597,None,1170.2447155587597,None,1170.2447155587597,None,0.0053343797862908104,0.010890484156334423,,,04,001,moebius,23,m,13,1,sofia,2022_Nov_07_1031,CPO_EEG,2020.1.3,143.72923235788303,
stimoli/02.subtle/JF1_Neutral.mp4,neutral,subtle,femmina,5,10,1646,926,25,,,,,,,,,,,,,,,,,0,0,0,0,,,,,,,,,0,35,35,24,,,0.005471013189890073,0.009391044801304815,1175.6058402120443,None,0.006229553097909957,0.012668963559917756,67.0,-113.0,1,0,0,6.599822248280361,click_1,0.006229553097909957,None,1186.4271901115899,None,1186.4271901115899,None,0.005427713871540618,0.011088378077147354,1193.0272670240083,None,0.006123389585809491,0.012479088032705477,76.0,-116.0,1,0,0,7.052608992402384,click_2,0.006123389585809491,None,1193.5290438997354,None,1193.5290438997354,None,1193.5290438997354,None,0.005346567742890329,0.010899144020186213,,,04,001,moebius,23,m,13,1,sofia,2022_Nov_07_1031,CPO_EEG,2020.1.3,143.72923235788303,
stimoli/01.full/F01-Fear-Face Forward.mp4,fear,full,femmina,1,6,720,576,29,,,,,,,,,,,,,,,,,0,0,0,0,,,,,,,,,0,36,36,28,,,0.005559600387641694,0.00931092502651154,1202.1938805554628,None,0.006172141411298071,0.012569535497277684,-85.0,-119.0,1,0,0,8.795041233780466,click_1,0.006172141411298071,None,1208.2185589217124,None,1208.2185589217124,None,0.005407186788943363,0.011072662029619096,1217.0138945908566,None,0.006118899285866064,0.012467541547266592,-22.0,-92.0,1,0,0,4.725204565223976,click_2,0.006118899285866064,None,1217.515594490017,None,1217.515594490017,None,1217.515594490017,None,0.00532604065938358,0.010914539334407891,,,04,001,moebius,23,m,13,1,sofia,2022_Nov_07_1031,CPO_EEG,2020.1.3,143.72923235788303,
stimoli/02.subtle/JF2_Fear.mp4,fear,subtle,femmina,6,10,1646,926,2,,,,,,,,,,,,,,,,,0,0,0,0,,,,,,,,,0,37,37,1,,,0.006156617802844266,0.010356010200666788,1223.866594479754,None,0.006182725688631763,0.012575629475577443,0.0,0.0,1,0,0,1.8534978792949914,click_1,0.006182725688631763,None,1234.2887827182476,None,1234.2887827182476,None,0.005555687414016575,0.011314176004816545,1236.1426395007811,None,0.006202611300977878,0.012647153534089739,-27.0,-97.0,1,0,0,2.397164760641317,click_2,0.006202611300977878,None,1236.6444413938916,None,1236.6444413938916,None,1236.6444413938916,None,0.005318984473888122,0.010849750723537,,,04,001,moebius,23,m,13,1,sofia,2022_Nov_07_1031,CPO_EEG,2020.1.3,143.72923235788303,
stimoli/01.full/M03-Fear-Face Forward.mp4,fear,full,maschio,4,6,720,576,32,,,,,,,,,,,,,,,,,0,0,0,0,,,,,,,,,0,38,38,31,,,0.005289508862915682,0.008977007098110334,1240.6335504927783,None,0.006214799258486892,0.012636569257665542,-135.0,-27.0,1,0,0,9.924195723181583,click_1,0.006214799258486892,None,1246.6570280246015,None,1246.6570280246015,None,0.0054440713920484995,0.01109928309051611,1256.5814511493882,None,0.006130766506430518,0.012494483345108165,-138.0,-25.0,1,0,0,2.634039614707035,click_2,0.006130766506430518,None,1257.083245344842,None,1257.083245344842,None,1257.083245344842,None,0.005377358369514695,0.010985421920850058,,,04,001,moebius,23,m,13,1,sofia,2022_Nov_07_1031,CPO_EEG,2020.1.3,143.72923235788303,
stimoli/02.subtle/JM1_Sadness.mp4,sad,subtle,maschio,7,10,1646,926,19,,,,,,,,,,,,,,,,,0,0,0,0,,,,,,,,,0,39,39,18,,,0.0010183999647779274,0.0044351972774165915,1261.3268492336983,None,0.006214157786416763,0.012658700020438118,0.0,0.0,1,0,0,10.32241923233778,click_1,0.006214157786416763,None,1271.7524924370518,None,1271.7524924370518,None,0.005384414554100658,0.011030966388716479,1282.0751323355462,None,0.006186574516505061,0.012604816422935983,0.0,0.0,1,0,0,8.963193975814647,click_2,0.006186574516505061,None,1282.5769836219524,None,1282.5769836219524,None,1282.5769836219524,None,0.005324116244992183,0.010905237998485973,,,04,001,moebius,23,m,13,1,sofia,2022_Nov_07_1031,CPO_EEG,2020.1.3,143.72923235788303,
stimoli/02.subtle/JM2_Anger.mp4,angry,subtle,maschio,8,10,1646,926,8,,,,,,,,,,,,,,,,,0,0,0,0,,,,,,,,,0,40,40,7,,,0.005330819619302929,0.009293829813941556,1293.1596923759844,None,0.006207743072081939,0.012641380291825044,-15.0,66.0,1,0,0,4.481097762804893,click_1,0.006207743072081939,None,1304.1438121104666,None,1304.1438121104666,None,0.005423865044576814,0.01109864162026497,1308.6251654996158,None,0.006118257815614925,0.012483899068683968,-24.0,134.0,1,0,0,2.027746203130846,click_2,0.006118257815614925,None,1309.1269349984213,None,1309.1269349984213,None,1309.1269349984213,None,0.005390187797274848,0.011002741648553638,,,04,001,moebius,23,m,13,1,sofia,2022_Nov_07_1031,CPO_EEG,2020.1.3,143.72923235788303,
stimoli/02.subtle/JF2_Surprise.mp4,surprised,subtle,femmina,6,10,1646,926,22,,,,,,,,,,,,,,,,,0,0,0,0,,,,,,,,,0,41,41,21,,,0.006621460039241356,0.01028490309818153,1312.772450215406,None,0.00618978187412722,0.01261443849398347,-75.0,118.0,1,0,0,10.245390707388651,click_1,0.00618978187412722,None,1323.198382401617,None,1323.198382401617,None,0.005428676079645811,0.011078114535848727,1333.4439908885406,None,0.006120823700257461,0.01250314320986945,92.0,18.0,1,0,0,5.743004433850729,click_2,0.006120823700257461,None,1333.9458636642385,None,1333.9458636642385,None,1333.9458636642385,None,0.0053273236017048475,0.010924802875706519,,,04,001,moebius,23,m,13,1,sofia,2022_Nov_07_1031,CPO_EEG,2020.1.3,143.72923235788303,
stimoli/01.full/M03-Anger-Face Forward.mp4,angry,full,maschio,4,6,720,576,36,,,,,,,,,,,,,,,,,0,0,0,0,,,,,,,,,0,42,42,35,,,0.003189042898156913,0.007148845735173381,1341.3037549810251,None,0.0061990832082301495,0.012605457895006111,-32.0,136.0,1,0,0,4.167437501443601,click_1,0.0061990832082301495,None,1347.329997895974,None,1347.329997895974,None,0.005443109184852801,0.011104414861620171,1351.497687174934,None,0.006145520347672573,0.012509878658420348,-29.0,141.0,1,0,0,3.1567380795377176,click_2,0.006145520347672573,None,1351.9994515419685,None,1351.9994515419685,None,1351.9994515419685,None,0.005351058042833756,0.010944688488962129,,,04,001,moebius,23,m,13,1,sofia,2022_Nov_07_1031,CPO_EEG,2020.1.3,143.72923235788303,
stimoli/02.subtle/JM2_Fear.mp4,fear,subtle,maschio,8,10,1646,926,4,,,,,,,,,,,,,,,,,0,0,0,0,,,,,,,,,0,43,43,3,,,0.002007228099500935,0.005538207317840715,1356.7648891922336,None,0.0062282701564981835,0.012701037129772885,-38.0,-53.0,1,0,0,4.8713054455784,click_1,0.0062282701564981835,None,1367.3873993210664,None,1367.3873993210664,None,0.005427713872450113,0.011075548650296696,1372.2588885481964,None,0.006127238414592284,0.012484219804719032,-58.0,-78.0,1,0,0,2.9270406487585205,click_2,0.006127238414592284,None,1372.760672159372,None,1372.760672159372,None,1372.760672159372,None,0.00534047376459057,0.010906200205681671,,,04,001,moebius,23,m,13,1,sofia,2022_Nov_07_1031,CPO_EEG,2020.1.3,143.72923235788303,
stimoli/02.subtle/JF2_Sadness.mp4,sad,subtle,femmina,6,8,1646,926,18,,,,,,,,,,,,,,,,,0,0,0,0,,,,,,,,,0,44,44,17,,,0.004606822944879241,0.008934188884268224,1377.31512955156,None,0.006219931028681458,0.012678264895839675,-115.0,-73.0,1,0,0,15.624953814060973,click_1,0.006219931028681458,None,1385.6971219103525,None,1385.6971219103525,None,0.005427713872450113,0.01111371619754209,1401.322300239397,None,0.006142633727904467,0.012499935853156785,-32.0,-130.0,1,0,0,2.3135422306268083,click_2,0.006142633727904467,None,1401.824141262261,None,1401.824141262261,None,1401.824141262261,None,0.005361000849006814,0.01094661290244403,,,04,001,moebius,23,m,13,1,sofia,2022_Nov_07_1031,CPO_EEG,2020.1.3,143.72923235788303,
stimoli/02.subtle/JF1_Anger.mp4,angry,subtle,femmina,5,10,1646,926,5,,,,,,,,,,,,,,,,,0,0,0,0,,,,,,,,,0,45,45,4,,,0.0036715255982926465,0.007422529500217934,1405.7449237162227,None,0.006112163836405671,0.012466579340070894,-57.0,-84.0,1,0,0,12.23882171970763,click_1,0.006112163836405671,None,1416.5684440341875,None,1416.5684440341875,None,0.005405583110587031,0.01106207775137591,1428.807580395608,None,0.006125314000200888,0.01248325759661384,-25.0,-97.0,1,0,0,2.7040793089554427,click_2,0.006125314000200888,None,1429.3094092305164,None,1429.3094092305164,None,1429.3094092305164,None,0.005314173437909631,0.010853278816284728,,,04,001,moebius,23,m,13,1,sofia,2022_Nov_07_1031,CPO_EEG,2020.1.3,143.72923235788303,
stimoli/01.full/M02-Anger-Face Forward.mp4,angry,full,maschio,3,6,720,576,35,,,,,,,,,,,,,,,,,0,0,0,0,,,,,,,,,0,46,46,34,,,0.006508881811896572,0.010540850179495465,1433.631874328058,None,0.006208063808117004,0.01266094516904559,-24.0,98.0,1,0,0,7.401137072170059,click_1,0.006208063808117004,None,1439.653310697946,None,1439.653310697946,None,0.005377679104640265,0.010981573092067265,1447.0546389285882,None,0.005990605009174033,0.012247516863681085,-55.0,80.0,1,0,0,3.6515081633642694,click_2,0.005990605009174033,None,1447.556414200637,None,1447.556414200637,None,1447.556414200637,None,0.0052939670904379454,0.010815432005983894,,,04,001,moebius,23,m,13,1,sofia,2022_Nov_07_1031,CPO_EEG,2020.1.3,143.72923235788303,
stimoli/01.full/F03-Anger-Face Forward.mp4,angry,full,femmina,2,6,720,576,34,,,,,,,,,,,,,,,,,0,0,0,0,,,,,,,,,0,47,47,33,,,0.0015983863140718313,0.005130648475642374,1452.8103300626844,None,0.006230836042050214,0.01266703914734535,-13.0,-64.0,1,0,0,4.578570622150437,click_1,0.006230836042050214,None,1458.8364206281794,None,1458.8364206281794,None,0.005412960031208058,0.01108484998530912,1463.4152366131339,None,0.006103503972553881,0.012470107432818622,-26.0,94.0,1,0,0,3.1293450064013086,click_2,0.006103503972553881,None,1463.916985905591,None,1463.916985905591,None,1463.916985905591,None,0.005267346026812447,0.010805168462866277,,,04,001,moebius,23,m,13,1,sofia,2022_Nov_07_1031,CPO_EEG,2020.1.3,143.72923235788303,
stimoli/02.subtle/JM1_Neutral.mp4,neutral,subtle,maschio,7,10,1646,926,27,,,,,,,,,,,,,,,,,0,0,0,0,,,,,,,,,0,48,48,26,,,0.005562839818594512,0.009308711950325232,1468.678980778951,None,0.00623019457088958,0.012674095332840807,0.0,0.0,1,0,0,4.620386537824743,click_1,0.00623019457088958,None,1479.1002016786024,None,1479.1002016786024,None,0.005402375752964872,0.011012042983566062,1483.720749546479,None,0.006161877868180454,0.012546763263344474,23.0,95.0,1,0,0,7.84013474747826,click_2,0.006161877868180454,None,1484.222539893105,None,1484.222539893105,None,1484.222539893105,None,0.0053330968439695425,0.010925444347776647,,,04,001,moebius,23,m,13,1,sofia,2022_Nov_07_1031,CPO_EEG,2020.1.3,143.72923235788303,
stimoli/02.subtle/JM1_Disgust.mp4,disgusted,subtle,maschio,7,10,1646,926,11,,,,,,,,,,,,,,,,,0,0,0,0,,,,,,,,,0,49,49,10,,,0.000628898541435774,0.003970322967688844,1493.6590351885543,None,0.006204856451404339,0.012639776613468712,-20.0,-96.0,1,0,0,13.32600152926716,click_1,0.006204856451404339,None,1504.0864010633031,None,1504.0864010633031,None,0.005431883436358476,0.011080359685365693,1517.412628390497,None,0.0061237103218445554,0.012511161602560605,-84.0,-50.0,1,0,0,3.6658947627711314,click_2,0.0061237103218445554,None,1517.9144758280754,None,1517.9144758280754,None,1517.9144758280754,None,0.005347209214960458,0.010921916255028918,,,04,001,moebius,23,m,13,1,sofia,2022_Nov_07_1031,CPO_EEG,2020.1.3,143.72923235788303,
stimoli/01.full/F03-Disgust-Face Forward.mp4,disgusted,full,femmina,2,6,720,576,38,,,,,,,,,,,,,,,,,0,0,0,0,,,,,,,,,0,50,50,37,,,0.003879875501297647,0.0078541114444306,1523.242024265579,None,0.006219289556611329,0.012668963560827251,-31.0,140.0,1,0,0,9.073855166025169,click_1,0.006219289556611329,None,1529.2685606536852,None,1529.2685606536852,None,0.005442467713692167,0.011124941946036415,1538.342658616628,None,0.0060871464520459995,0.012387357624902506,-33.0,134.0,1,0,0,2.188055033112505,click_2,0.0060871464520459995,None,1538.8443723074233,None,1538.8443723074233,None,1538.8443723074233,None,0.005347209214050963,0.010933142003523244,,,04,001,moebius,23,m,13,1,sofia,2022_Nov_07_1031,CPO_EEG,2020.1.3,143.72923235788303,
stimoli/01.full/M03-Neutral-Face Forward.mp4,neutral,full,maschio,4,6,720,576,56,,,,,,,,,,,,,,,,,0,0,0,0,,,,,,,,,0,51,51,55,,,0.0032762509317763033,0.006996143472861149,1542.6943404904432,None,0.0062224969142334885,0.012647795006159868,-1.0,-1.0,1,0,0,4.404293111367224,click_1,0.0062224969142334885,None,1548.7214577308841,None,1548.7214577308841,None,0.005448882427117496,0.01113328107385314,1553.125998770941,None,0.006059242447918223,0.012358812148704601,0.0,6.0,1,0,0,7.31117327681568,click_2,0.006059242447918223,None,1553.6277509500187,None,1553.6277509500187,None,1553.6277509500187,None,0.005301664747094037,0.01086674971611501,,,04,001,moebius,23,m,13,1,sofia,2022_Nov_07_1031,CPO_EEG,2020.1.3,143.72923235788303,
stimoli/02.subtle/JM2_Neutral.mp4,neutral,subtle,maschio,8,10,1646,926,28,,,,,,,,,,,,,,,,,0,0,0,0,,,,,,,,,0,52,52,27,,,0.0006007058746035909,0.004776684567332268,1562.556622037364,None,0.006210629694578529,0.012648115742194932,0.0,0.0,1,0,0,2.801445684052851,click_1,0.006210629694578529,None,1573.5401942760227,None,1573.5401942760227,None,0.005397243981860811,0.011009797834049095,1576.3418234208893,None,0.006052186262422765,0.01234469977862318,-15.0,-58.0,1,0,0,2.7804105545137645,click_2,0.006052186262422765,None,1576.8436330116565,None,1576.8436330116565,None,1576.8436330116565,None,0.005332134636773844,0.010884069442909095,,,04,001,moebius,23,m,13,1,sofia,2022_Nov_07_1031,CPO_EEG,2020.1.3,143.72923235788303,
stimoli/02.subtle/JM2_Surprise.mp4,surprised,subtle,maschio,8,10,1646,926,24,,,,,,,,,,,,,,,,,0,0,0,0,,,,,,,,,0,53,53,23,,,0.0006207197811818332,0.004151699000431108,1581.2545223732386,None,0.006132690920821915,0.012509237187259714,24.0,-101.0,1,0,0,12.266112157422867,click_1,0.006132690920821915,None,1592.2374848933487,None,1592.2374848933487,None,0.00542354430854175,0.011069775408032001,1604.5038600540374,None,0.0061394263693728135,0.012512123807937314,-100.0,25.0,1,0,0,4.530168719802532,click_2,0.0061394263693728135,None,1605.0056879267386,None,1605.0056879267386,None,1605.0056879267386,None,0.00534881289331679,0.010924161404545885,,,04,001,moebius,23,m,13,1,sofia,2022_Nov_07_1031,CPO_EEG,2020.1.3,143.72923235788303,
stimoli/02.subtle/JM2_Happiness.mp4,happy,subtle,maschio,8,10,1646,926,16,,,,,,,,,,,,,,,,,0,0,0,0,,,,,,,,,0,54,54,15,,,0.0019922497413062956,0.005795854297502956,1611.2060239294478,None,0.006201007622621546,0.01262662645058299,80.0,52.0,1,0,0,5.275777848197322,click_1,0.006201007622621546,None,1621.832487125669,None,1621.832487125669,None,0.005412960030298564,0.011051172737097659,1627.1084968657706,None,0.006121144436292525,0.012510199394455412,73.0,49.0,1,0,0,6.530205925142582,click_2,0.006121144436292525,None,1627.6103872819313,None,1627.6103872819313,None,1627.6103872819313,None,0.005327002865669783,0.010855203230676125,,,04,001,moebius,23,m,13,1,sofia,2022_Nov_07_1031,CPO_EEG,2020.1.3,143.72923235788303,
stimoli/01.full/F01-Neutral-Face Forward.mp4,neutral,full,femmina,1,6,720,576,53,,,,,,,,,,,,,,,,,0,0,0,0,,,,,,,,,0,55,55,52,,,0.005595073756012425,0.00950772844680614,1635.8071862114439,None,0.006231798249245912,0.012668642825701681,0.0,0.0,1,0,0,3.6585255395411878,click_1,0.006231798249245912,None,1641.82969672516,None,1641.82969672516,None,0.005541575043025659,0.011351060607921681,1645.4885776398469,None,0.006175669503136305,0.012621494679478928,0.0,0.0,1,0,0,2.4809367534871853,click_2,0.006175669503136305,None,1645.9903811366357,None,1645.9903811366357,None,1645.9903811366357,None,0.005344964064533997,0.010915822275819664,,,04,001,moebius,23,m,13,1,sofia,2022_Nov_07_1031,CPO_EEG,2020.1.3,143.72923235788303,
,,,,,,,,,,,,,,,,,,,,,,,,,0,0,0,0,,,,,,,,,,,,,,,,,,,,,,,,,,,,,,,,,,,,,,,,,,,,,,,,,,,,,,,,,,,04,001,moebius,23,m,13,1,sofia,2022_Nov_07_1031,CPO_EEG,2020.1.3,143.72923235788303,
,,,,,,,,,,,,,,,,,,,,,,,,,1,0,1,0,,,,,0,0,0,0,,,,,,,,,,,,,,,,,,,,,,,,,,,,,,,,,,,,,,,,,,,,,,,,,,,04,001,moebius,23,m,13,1,sofia,2022_Nov_07_1031,CPO_EEG,2020.1.3,143.72923235788303,
stimoli/02.subtle/JF2_Happiness.mp4,happy,subtle,femmina,6,9,1646,926,14,,,,,,,,,,,,,,,,,1,0,1,0,,,,,,,,,0,0,0,13,,,0.0008173949072443065,0.0064937751603793,1754.6974676634272,None,0.005949871577286103,0.012125958037358942,84.0,53.0,1,0,0,5.4350208734786065,click_1,0.005949871577286103,None,1764.198049798706,None,1764.198049798706,None,0.004621705081262917,0.009469945782257128,1769.633520664359,None,0.005807464929603157,0.011853011963466997,165.0,121.0,1,0,0,1.8672863066385617,click_2,0.005807464929603157,None,1770.135357838395,None,1770.135357838395,None,1770.135357838395,None,0.004539276009381865,0.00932465251389658,,,04,001,moebius,23,m,13,1,sofia,2022_Nov_07_1031,CPO_EEG,2020.1.3,143.72923235788303,
stimoli/01.full/F01-Sadness-Face Forward.mp4,sad,full,femmina,1,6,720,576,45,,,,,,,,,,,,,,,,,1,0,1,0,,,,,,,,,0,1,1,44,,,0.0012483674536269973,0.005396442141318403,1773.6133223342367,None,0.006196517322678119,0.012630475278456288,-26.0,-137.0,1,0,0,8.34897999635632,click_1,0.006196517322678119,None,1779.6351291538476,None,1779.6351291538476,None,0.005432845642644679,0.011086453662755957,1787.9843346273947,None,0.006138784899121674,0.012512444544881873,-34.0,57.0,1,0,0,3.052198129982571,click_2,0.006138784899121674,None,1788.4861932907224,None,1788.4861932907224,None,1788.4861932907224,None,0.005361000849916309,0.010982535301081953,,,04,001,moebius,23,m,13,1,sofia,2022_Nov_07_1031,CPO_EEG,2020.1.3,143.72923235788303,
stimoli/01.full/M03-Surprise-Face Forward.mp4,surprised,full,maschio,4,6,720,576,52,,,,,,,,,,,,,,,,,1,0,1,0,,,,,,,,,0,2,2,51,,,0.004380415621199063,0.008006653340089542,1793.1176715102029,None,0.006226345743016282,0.012659982962759386,23.0,-143.0,1,0,0,3.9235026133546853,click_1,0.006226345743016282,None,1799.1400396172721,None,1799.1400396172721,None,0.005467485098051839,0.011171127885972965,1803.0638260817132,None,0.006127238414592284,0.012519179994342267,34.0,-131.0,1,0,0,2.452863399952548,click_2,0.006127238414592284,None,1803.5655631862137,None,1803.5655631862137,None,1803.5655631862137,None,0.005361963056202512,0.010969385136377241,,,04,001,moebius,23,m,13,1,sofia,2022_Nov_07_1031,CPO_EEG,2020.1.3,143.72923235788303,
stimoli/02.subtle/JF1_Disgust.mp4,disgusted,subtle,femmina,5,10,1646,926,9,,,,,,,,,,,,,,,,,1,0,1,0,,,,,,,,,0,3,3,8,,,0.003915252649676404,0.007473173666767252,1807.6048642133374,None,0.006214157786416763,0.012652926777263929,-24.0,-97.0,1,0,0,4.495137005457764,click_1,0.006214157786416763,None,1818.4270666283492,None,1818.4270666283492,None,0.0054450336001536925,0.01113873358190176,1822.9224637504522,None,0.006124351793914684,0.012512123809756304,-19.0,92.0,1,0,0,2.6761339289614625,click_2,0.006124351793914684,None,1823.4243150368584,None,1823.4243150368584,None,1823.4243150368584,None,0.005369660711949109,0.010944047015982505,,,04,001,moebius,23,m,13,1,sofia,2022_Nov_07_1031,CPO_EEG,2020.1.3,143.72923235788303,
stimoli/02.subtle/JM1_Disgust.mp4,disgusted,subtle,maschio,7,10,1646,926,11,,,,,,,,,,,,,,,,,1,0,1,0,,,,,,,,,0,4,4,10,,,0.0015725991643193993,0.005390957561758114,1827.6896596737733,None,0.0062173651431294275,0.012665435468079522,-90.0,62.0,1,0,0,8.230360070715506,click_1,0.0062173651431294275,None,1838.1160290227308,None,1838.1160290227308,None,0.00543509079307114,0.01110152824094257,1846.3466129669587,None,0.006118899285866064,0.012468824490497354,-69.0,-111.0,1,0,0,3.331115980591676,click_2,0.006118899285866064,None,1846.8484485373165,None,1846.8484485373165,None,1846.8484485373165,None,0.005250667772088491,0.010763793559817714,,,04,001,moebius,23,m,13,1,sofia,2022_Nov_07_1031,CPO_EEG,2020.1.3,143.72923235788303,
stimoli/01.full/M02-Disgust-Face Forward.mp4,disgusted,full,maschio,3,6,720,576,39,,,,,,,,,,,,,,,,,1,0,1,0,,,,,,,,,0,5,5,38,,,0.005717274054404697,0.009447109401662601,1851.7779197211394,None,0.006225704270946153,0.012659020754654193,-18.0,95.0,1,0,0,6.223213117320483,click_1,0.006225704270946153,None,1857.80172344116,None,1857.80172344116,None,0.005457542291878781,0.01112173458932375,1864.0251681296486,None,0.0061237103218445554,0.012481012447096873,-35.0,142.0,1,0,0,2.1881836481243226,click_2,0.0061237103218445554,None,1864.5269735508518,None,1864.5269735508518,None,1864.5269735508518,None,0.005358114227419719,0.010925123610832088,,,04,001,moebius,23,m,13,1,sofia,2022_Nov_07_1031,CPO_EEG,2020.1.3,143.72923235788303,
stimoli/01.full/M02-Fear-Face Forward.mp4,fear,full,maschio,3,6,720,576,31,,,,,,,,,,,,,,,,,1,0,1,0,,,,,,,,,0,6,6,30,,,0.0035622188752313377,0.00765191966729617,1868.2958834857036,None,0.006219289557520824,0.012644908384572773,-73.0,-115.0,1,0,0,9.122431548588793,click_1,0.006219289557520824,None,1874.319205139982,None,1874.319205139982,None,0.00543797741374874,0.011118527231701592,1883.4418839757882,None,0.006125314000200888,0.012478767297579907,21.0,-94.0,1,0,0,2.5156021876737213,click_2,0.006125314000200888,None,1883.9436156277825,None,1883.9436156277825,None,1883.9436156277825,None,0.00536068011297175,0.01092961390986602,,,04,001,moebius,23,m,13,1,sofia,2022_Nov_07_1031,CPO_EEG,2020.1.3,143.72923235788303,
stimoli/02.subtle/JM1_Fear.mp4,fear,subtle,maschio,7,10,1646,926,3,,,,,,,,,,,,,,,,,1,0,1,0,,,,,,,,,0,7,7,2,,,0.0030826227957732044,0.006764989260773291,1888.046662552697,None,0.006204856451404339,0.012617325115570566,21.0,-137.0,1,0,0,9.882326565382755,click_1,0.006204856451404339,None,1898.4683456324774,None,1898.4683456324774,None,0.005287552375193627,0.01078335843521927,1908.350898316522,None,0.0061163334003140335,0.012499294381086656,-82.0,-123.0,1,0,0,2.306578096575322,click_2,0.0061163334003140335,None,1908.8526767959274,None,1908.8526767959274,None,1908.8526767959274,None,0.005395961039539543,0.01103609815982054,,,04,001,moebius,23,m,13,1,sofia,2022_Nov_07_1031,CPO_EEG,2020.1.3,143.72923235788303,
stimoli/02.subtle/JM1_Happiness.mp4,happy,subtle,maschio,7,10,1646,926,15,,,,,,,,,,,,,,,,,1,0,1,0,,,,,,,,,0,8,8,14,,,0.0005025286800446338,0.0044748402087861905,1912.756476936538,None,0.006217685879164492,0.012643946177377074,-4.0,2.0,1,0,0,3.777029358862819,click_1,0.006217685879164492,None,1923.1813936735525,None,1923.1813936735525,None,0.005442467714601662,0.01108741587086115,1926.958638246063,None,0.006110880894084403,0.012436750922461215,114.0,72.0,1,0,0,4.683027180425597,click_2,0.006110880894084403,None,1927.4604452709445,None,1927.4604452709445,None,1927.4604452709445,None,0.0053792827820871025,0.010992798841471085,,,04,001,moebius,23,m,13,1,sofia,2022_Nov_07_1031,CPO_EEG,2020.1.3,143.72923235788303,
stimoli/01.full/M03-Neutral-Face Forward.mp4,neutral,full,maschio,4,6,720,576,56,,,,,,,,,,,,,,,,,1,0,1,0,,,,,,,,,0,9,9,55,,,0.002005688566896424,0.005640265413603629,1933.7251410595563,None,0.006202611301887373,0.012660945169955085,-1.0,2.0,1,0,0,2.9755929761449806,click_1,0.006202611301887373,None,1939.7459718804603,None,1939.7459718804603,None,0.005444712864118628,0.011146110501613293,1942.7218079742588,None,0.006137822691925976,0.012506992037742748,0.0,0.0,1,0,0,1.5398661634108066,click_2,0.006137822691925976,None,1943.2235547008304,None,1943.2235547008304,None,1943.2235547008304,None,0.005486729240146815,0.011140016524223029,,,04,001,moebius,23,m,13,1,sofia,2022_Nov_07_1031,CPO_EEG,2020.1.3,143.72923235788303,
stimoli/02.subtle/JF2_Fear.mp4,fear,subtle,femmina,6,10,1646,926,2,,,,,,,,,,,,,,,,,1,0,1,0,,,,,,,,,0,10,10,1,,,0.0026841728476938442,0.006300788495536835,1946.3580029328068,None,0.006246231355362397,0.012708414051303407,-27.0,-102.0,1,0,0,11.841623281819011,click_1,0.006246231355362397,None,1956.7811774335496,None,1956.7811774335496,None,0.005406545316873235,0.011048286116420059,1968.6229803273554,None,0.006132690920821915,0.012478446561544843,-34.0,56.0,1,0,0,3.247654780629091,click_2,0.006132690920821915,None,1969.1248829314727,None,1969.1248829314727,None,1969.1248829314727,None,0.0053096831379662035,0.010940198188109207,,,04,001,moebius,23,m,13,1,sofia,2022_Nov_07_1031,CPO_EEG,2020.1.3,143.72923235788303,
stimoli/02.subtle/JM1_Neutral.mp4,neutral,subtle,maschio,7,10,1646,926,27,,,,,,,,,,,,,,,,,1,0,1,0,,,,,,,,,0,11,11,26,,,0.0018411511573503958,0.005782030588306952,1973.95486863949,None,0.0062218554430728545,0.012653247512389498,61.0,-83.0,1,0,0,13.004587803319737,click_1,0.0062218554430728545,None,1984.377071952562,None,1984.377071952562,None,0.005421299159024784,0.011093189113125845,1997.3818938929353,None,0.006121785907453159,0.012512123808846809,61.0,10.0,1,0,0,6.934173169048336,click_2,0.006121785907453159,None,1997.8837166338662,None,1997.8837166338662,None,1997.8837166338662,None,0.005344643329408427,0.010907162413786864,,,04,001,moebius,23,m,13,1,sofia,2022_Nov_07_1031,CPO_EEG,2020.1.3,143.72923235788303,
stimoli/01.full/F01-Anger-Face Forward.mp4,angry,full,femmina,1,6,720,576,33,,,,,,,,,,,,,,,,,1,0,1,0,,,,,,,,,0,12,12,32,,,0.0037463211610884173,0.007820305903806002,2006.398301447929,None,0.006185612310218858,0.01261443849398347,11.0,-63.0,1,0,0,3.623813277944464,click_1,0.006185612310218858,None,2012.4252560753748,None,2012.4252560753748,None,0.005460108177430811,0.011157336251017114,2016.0493525629345,None,0.0060922782231500605,0.012416544572261046,-18.0,101.0,1,0,0,3.881546856919158,click_2,0.0060922782231500605,None,2016.5511230239472,None,2016.5511230239472,None,2016.5511230239472,None,0.005352661721190088,0.010960725272525451,,,04,001,moebius,23,m,13,1,sofia,2022_Nov_07_1031,CPO_EEG,2020.1.3,143.72923235788303,
stimoli/02.subtle/JF2_Sadness.mp4,sad,subtle,femmina,6,8,1646,926,18,,,,,,,,,,,,,,,,,1,0,1,0,,,,,,,,,0,13,13,17,,,0.00042725201274151914,0.004314568584049994,2022.022907905237,None,0.006233722662727814,0.01267537827425258,-88.0,-57.0,1,0,0,12.76743968244591,click_1,0.006233722662727814,None,2030.4079401969057,None,2030.4079401969057,None,0.005420336951829086,0.011095754998677876,2043.1756104883134,None,0.006077524380998511,0.012340850948930893,-12.0,-59.0,1,0,0,3.1079381441977603,click_2,0.006077524380998511,None,2043.677412381424,None,2043.677412381424,None,2043.677412381424,None,0.005350095836547553,0.010904917263360403,,,04,001,moebius,23,m,13,1,sofia,2022_Nov_07_1031,CPO_EEG,2020.1.3,143.72923235788303,
stimoli/01.full/F03-Fear-Face Forward.mp4,fear,full,femmina,2,6,720,576,30,,,,,,,,,,,,,,,,,1,0,1,0,,,,,,,,,0,14,14,29,,,0.0031831092874199385,0.006933792454219656,2048.3660319093524,None,0.006199724679390783,0.012625022771317163,-18.0,-63.0,1,0,0,4.084065466003267,click_1,0.006199724679390783,None,2054.3931770537984,None,2054.3931770537984,None,0.0054225821022555465,0.011067850994550099,2058.4774699214067,None,0.006118578551649989,0.012506029831456544,23.0,-196.0,1,0,0,1.1009842736875726,click_2,0.006118578551649989,None,2058.979274380403,None,2058.979274380403,None,2058.979274380403,None,0.0053744717479276005,0.010960404536490387,,,04,001,moebius,23,m,13,1,sofia,2022_Nov_07_1031,CPO_EEG,2020.1.3,143.72923235788303,
stimoli/01.full/F01-Joy-Face Forward.mp4,happy,full,femmina,1,6,720,576,41,,,,,,,,,,,,,,,,,1,0,1,0,,,,,,,,,0,15,15,40,,,0.002012424018175807,0.006247418077691691,2061.6625850911787,None,0.006152897269203095,0.012550932827252836,0.0,0.0,1,0,0,1.4912112006040843,click_1,0.006152897269203095,None,2067.6833094278327,None,2067.6833094278327,None,0.005370622920963797,0.01099600620000274,2069.174762142412,None,0.006127879887571908,0.012473956263420405,179.0,109.0,1,0,0,1.5538159208063007,click_2,0.006127879887571908,None,2069.6765601866937,None,2069.6765601866937,None,2069.6765601866937,None,0.00536613262102037,0.010944688489871623,,,04,001,moebius,23,m,13,1,sofia,2022_Nov_07_1031,CPO_EEG,2020.1.3,143.72923235788303,
stimoli/01.full/M02-Joy-Face Forward.mp4,happy,full,maschio,3,6,720,576,43,,,,,,,,,,,,,,,,,1,0,1,0,,,,,,,,,0,16,16,42,,,0.003399317216462805,0.0072147889932239195,2072.831233369854,None,0.006188498929986963,0.012585251546624932,170.0,106.0,1,0,0,2.7246862563479226,click_1,0.006188498929986963,None,2078.855991278555,None,2078.855991278555,None,0.00542643093103834,0.011071379087297828,2081.5809222562348,None,0.006124351793914684,0.012489672310039168,117.0,70.0,1,0,0,1.853537009050342,click_2,0.006124351793914684,None,2082.082769052342,None,2082.082769052342,None,2082.082769052342,None,0.005361963056202512,0.010948216580800363,,,04,001,moebius,23,m,13,1,sofia,2022_Nov_07_1031,CPO_EEG,2020.1.3,143.72923235788303,
stimoli/02.subtle/JM2_Sadness.mp4,sad,subtle,maschio,8,10,1646,926,20,,,,,,,,,,,,,,,,,1,0,1,0,,,,,,,,,0,17,17,19,,,0.004501878227529232,0.007918996276202961,2085.522014656337,None,0.006175990236442885,0.012578516094436054,0.0,0.0,1,0,0,4.404426858151055,click_1,0.006175990236442885,None,2096.1481927185305,None,2096.1481927185305,None,0.005375754692067858,0.010976762057907763,2100.5528591662405,None,0.006115691930972389,0.01247652214806294,-25.0,-99.0,1,0,0,1.846448750284253,click_2,0.006115691930972389,None,2101.0546584934655,None,2101.0546584934655,None,2101.0546584934655,None,0.005394998832343845,0.011054380094719818,,,04,001,moebius,23,m,13,1,sofia,2022_Nov_07_1031,CPO_EEG,2020.1.3,143.72923235788303,
stimoli/01.full/M02-Neutral-Face Forward.mp4,neutral,full,maschio,3,6,720,576,55,,,,,,,,,,,,,,,,,1,0,1,0,,,,,,,,,0,18,18,54,,,0.0052041931685380405,0.009232633443389204,2104.493662262752,None,0.006149369175545871,0.012548046204756247,0.0,0.0,1,0,0,3.191671328026132,click_1,0.006149369175545871,None,2110.5174836232345,None,2110.5174836232345,None,0.005385056027080282,0.010993440313541214,2113.7093769003586,None,0.006167651110445149,0.012575950209793518,14.0,60.0,1,0,0,9.471128335329922,click_2,0.006167651110445149,None,2114.2111569834415,None,2114.2111569834415,None,2114.2111569834415,None,0.005349133629351854,0.010906200204772176,,,04,001,moebius,23,m,13,1,sofia,2022_Nov_07_1031,CPO_EEG,2020.1.3,143.72923235788303,
stimoli/02.subtle/JM2_Neutral.mp4,neutral,subtle,maschio,8,10,1646,926,28,,,,,,,,,,,,,,,,,1,0,1,0,,,,,,,,,0,19,19,27,,,0.0044280769434408285,0.00784327057772316,2125.383275301556,None,0.006176631710332003,0.01258044051064644,0.0,0.0,1,0,0,2.1114569354613195,click_1,0.006176631710332003,None,2136.3673652076177,None,2136.3673652076177,None,0.005405262374551967,0.011017495491614682,2138.4790354323122,None,0.006175990238261875,0.012616042171430308,-11.0,-64.0,1,0,0,1.7420736588755972,click_2,0.006175990238261875,None,2138.980811345833,None,2138.980811345833,None,2138.980811345833,None,0.005355548340958194,0.010941481130430475,,,04,001,moebius,23,m,13,1,sofia,2022_Nov_07_1031,CPO_EEG,2020.1.3,143.72923235788303,
stimoli/02.subtle/JF1_Sadness.mp4,sad,subtle,femmina,5,10,1646,926,17,,,,,,,,,,,,,,,,,1,0,1,0,,,,,,,,,0,20,20,16,,,0.0055874723202578025,0.009237123744242126,2142.3144925704783,None,0.00620196982890775,0.012625022769498173,-8.0,-64.0,1,0,0,4.381075054716348,click_1,0.00620196982890775,None,2153.135853375037,None,2153.135853375037,None,0.005445033601063187,0.011101207506726496,2157.517168019316,None,0.006080090266550542,0.012395696752719232,-26.0,-95.0,1,0,0,1.7458839988812542,click_2,0.006080090266550542,None,2158.0180891722193,None,2158.0180891722193,None,2158.0180891722193,None,0.0053680570345022716,0.010962970423861407,,,04,001,moebius,23,m,13,1,sofia,2022_Nov_07_1031,CPO_EEG,2020.1.3,143.72923235788303,
stimoli/01.full/M03-Anger-Face Forward.mp4,angry,full,maschio,4,6,720,576,36,,,,,,,,,,,,,,,,,1,0,1,0,,,,,,,,,0,21,21,35,,,0.001613428818018292,0.005802557674542186,2161.3440592693896,None,0.006188819665112533,0.012608665250809281,-28.0,129.0,1,0,0,4.362439028145673,click_1,0.006188819665112533,None,2167.3684746323725,None,2167.3684746323725,None,0.0054338078498403775,0.011091585434769513,2171.731149080515,None,0.00613237018660584,0.012517897052020999,-30.0,152.0,1,0,0,3.06618541345415,click_2,0.00613237018660584,None,2172.2329516150967,None,2172.2329516150967,None,2172.2329516150967,None,0.005344643330317922,0.010945971431283397,,,04,001,moebius,23,m,13,1,sofia,2022_Nov_07_1031,CPO_EEG,2020.1.3,143.72923235788303,
stimoli/02.subtle/JF2_Disgust.mp4,disgusted,subtle,femmina,6,10,1646,926,10,,,,,,,,,,,,,,,,,1,0,1,0,,,,,,,,,0,22,22,9,,,0.004177935177722247,0.007926693931949558,2176.8854745861863,None,0.006194592908286722,0.012624060564121464,-13.0,-65.0,1,0,0,9.652250025017565,click_1,0.006194592908286722,None,2187.3065007992736,None,2187.3065007992736,None,0.005412960032117553,0.011056625246055773,2196.958985602816,None,0.006126276206487091,0.01251148233677668,-18.0,-97.0,1,0,0,2.668973183930575,click_2,0.006126276206487091,None,2197.4607964765255,None,2197.4607964765255,None,2197.4607964765255,None,0.0052618935205828166,0.010746473832114134,,,04,001,moebius,23,m,13,1,sofia,2022_Nov_07_1031,CPO_EEG,2020.1.3,143.72923235788303,
stimoli/01.full/F03-Anger-Face Forward.mp4,angry,full,femmina,2,6,720,576,34,,,,,,,,,,,,,,,,,1,0,1,0,,,,,,,,,0,23,23,33,,,0.00048049413635453675,0.004531065174887772,2201.7202245021545,None,0.006161877869089949,0.012536178986920277,9.0,-65.0,1,0,0,2.4599106045479857,click_1,0.006161877869089949,None,2207.746080609859,None,2207.746080609859,None,0.0053876219117228175,0.011005628270140733,2210.206297196257,None,0.006129483565018745,0.012490955254179426,-28.0,137.0,1,0,0,1.6583654924324946,click_2,0.006129483565018745,None,2210.708058997405,None,2210.708058997405,None,2210.708058997405,None,0.005416488122136798,0.011038664044463076,,,04,001,moebius,23,m,13,1,sofia,2022_Nov_07_1031,CPO_EEG,2020.1.3,143.72923235788303,
stimoli/01.full/M02-Sadness-Face Forward.mp4,sad,full,maschio,3,6,720,576,47,,,,,,,,,,,,,,,,,1,0,1,0,,,,,,,,,0,24,24,46,,,0.003466318903520005,0.0072089836776285665,2213.9467832134633,None,0.006201969830726739,0.012611231137270806,-16.0,65.0,1,0,0,6.9063323488881,click_1,0.006201969830726739,None,2219.6110515255477,None,2219.6110515255477,None,0.0054277138733596075,0.01107586938633176,2226.517619935905,None,0.006124672527221264,0.012478767295760917,-27.0,-137.0,1,0,0,1.4352639911339793,click_2,0.006124672527221264,None,2227.0194487708122,None,2227.0194487708122,None,2227.0194487708122,None,0.005447599483886734,0.011139054315208341,,,04,001,moebius,23,m,13,1,sofia,2022_Nov_07_1031,CPO_EEG,2020.1.3,143.72923235788303,
stimoli/01.full/F01-Disgust-Face Forward.mp4,disgusted,full,femmina,1,6,720,576,37,,,,,,,,,,,,,,,,,1,0,1,0,,,,,,,,,0,25,25,36,,,0.005052998365499661,0.008683405649207998,2230.0335136723206,None,0.00612691767855722,0.01246529639865912,-32.0,137.0,1,0,0,2.66192116829734,click_1,0.00612691767855722,None,2236.0551633314426,None,2236.0551633314426,None,0.005457221554024727,0.01112269679470046,2238.7174017073394,None,0.00613269092173141,0.012480691711971303,-19.0,92.0,1,0,0,2.2647249755609664,click_2,0.00613269092173141,None,2239.2192167506128,None,2239.2192167506128,None,2239.2192167506128,None,0.005343360386177665,0.01092159551808436,,,04,001,moebius,23,m,13,1,sofia,2022_Nov_07_1031,CPO_EEG,2020.1.3,143.72923235788303,
stimoli/02.subtle/JM2_Anger.mp4,angry,subtle,maschio,8,10,1646,926,8,,,,,,,,,,,,,,,,,1,0,1,0,,,,,,,,,0,26,26,7,,,0.006709854797009029,0.010168027014515246,2243.0877677180815,None,0.006161877869089949,0.01252848132935469,-21.0,107.0,1,0,0,14.197583128276165,click_1,0.006161877869089949,None,2254.074424471877,None,2254.074424471877,None,0.00542643092921935,0.011080680420491262,2268.2723058843458,None,0.006119861493061762,0.012507633507993887,-57.0,86.0,1,0,0,3.0595657495323394,click_2,0.006119861493061762,None,2268.7741363229325,None,2268.7741363229325,None,2268.7741363229325,None,0.00535747275716858,0.010940839660179336,,,04,001,moebius,23,m,13,1,sofia,2022_Nov_07_1031,CPO_EEG,2020.1.3,143.72923235788303,
stimoli/01.full/M03-Disgust-Face Forward.mp4,disgusted,full,maschio,4,6,720,576,40,,,,,,,,,,,,,,,,,1,0,1,0,,,,,,,,,0,27,27,39,,,0.0016336351673089666,0.005903268680413021,2273.4165160278044,None,0.00619619658573356,0.01260353347970522,-27.0,136.0,1,0,0,4.355564058614618,click_1,0.00619619658573356,None,2279.4373054738026,None,2279.4373054738026,None,0.005439901828140137,0.011112753989436897,2283.7931495346766,None,0.006122748112829868,0.012475239203922683,-25.0,142.0,1,0,0,3.156779454440766,click_2,0.006122748112829868,None,2284.2949446923376,None,2284.2949446923376,None,2284.2949446923376,None,0.005344322593373363,0.010899785491346847,,,04,001,moebius,23,m,13,1,sofia,2022_Nov_07_1031,CPO_EEG,2020.1.3,143.72923235788303,
stimoli/01.full/M03-Sadness-Face Forward.mp4,sad,full,maschio,4,6,720,576,48,,,,,,,,,,,,,,,,,1,0,1,0,,,,,,,,,0,28,28,47,,,0.0011817185768450145,0.0050071331606886815,2289.034519499446,None,0.006212874843186,0.012632720428882749,-18.0,-95.0,1,0,0,4.648269374360098,click_1,0.006212874843186,None,2295.0587565333863,None,2295.0587565333863,None,0.005421940630185418,0.011095113526607747,2299.7072815340907,None,0.006131087242465583,0.01249448334601766,-28.0,-140.0,1,0,0,1.825660266491468,click_2,0.006131087242465583,None,2300.2090629001177,None,2300.2090629001177,None,2300.2090629001177,None,0.005347209214960458,0.010919671105511952,,,04,001,moebius,23,m,13,1,sofia,2022_Nov_07_1031,CPO_EEG,2020.1.3,143.72923235788303,
stimoli/01.full/F03-Neutral-Face Forward.mp4,neutral,full,femmina,2,6,720,576,54,,,,,,,,,,,,,,,,,1,0,1,0,,,,,,,,,0,29,29,53,,,0.0026365756730228895,0.00670671158877667,2303.6163183263234,None,0.006187536722791265,0.012617325113751576,-19.0,-65.0,1,0,0,12.983520600211705,click_1,0.006187536722791265,None,2309.6398625711718,None,2309.6398625711718,None,0.005443109186671791,0.011089661020378117,2322.623612497402,None,0.006126276206487091,0.012493521138821961,-12.0,-60.0,1,0,0,2.041651699000795,click_2,0.006126276206487091,None,2323.125402523292,None,2323.125402523292,None,2323.125402523292,None,0.00536933997500455,0.010993761046847794,,,04,001,moebius,23,m,13,1,sofia,2022_Nov_07_1031,CPO_EEG,2020.1.3,143.72923235788303,
stimoli/02.subtle/JM1_Surprise.mp4,surprised,subtle,maschio,7,10,1646,926,23,,,,,,,,,,,,,,,,,1,0,1,0,,,,,,,,,0,30,30,22,,,0.0017584013494342798,0.005236138444161043,2326.7488376538568,None,0.006201969830726739,0.012646832799873664,10.0,-91.0,1,0,0,14.210499475277174,click_1,0.006201969830726739,None,2337.1742047037806,None,2337.1742047037806,None,0.00539211221075675,0.011040909193980042,2351.384933184341,None,0.006036790950020077,0.01233924727239355,64.0,-15.0,1,0,0,4.3489023783185985,click_2,0.006036790950020077,None,2351.886787357369,None,2351.886787357369,None,2351.886787357369,None,0.005336304200682207,0.010923840667601326,,,04,001,moebius,23,m,13,1,sofia,2022_Nov_07_1031,CPO_EEG,2020.1.3,143.72923235788303,
stimoli/01.full/F01-Neutral-Face Forward.mp4,neutral,full,femmina,1,6,720,576,53,,,,,,,,,,,,,,,,,1,0,1,0,,,,,,,,,0,31,31,52,,,0.006457435809352319,0.010589794448605971,2357.8408098961063,None,0.00619010260925279,0.012588779638463166,-15.0,66.0,1,0,0,5.387014438236292,click_1,0.00619010260925279,None,2363.8612401181326,None,2363.8612401181326,None,0.005404941637607408,0.011037060367016238,2369.2484973532883,None,0.006109277213909081,0.012438033863872988,-13.0,67.0,1,0,0,2.3412903581720457,click_2,0.006109277213909081,None,2369.750259154438,None,2369.750259154438,None,2369.750259154438,None,0.0053760754271934275,0.01098991222170298,,,04,001,moebius,23,m,13,1,sofia,2022_Nov_07_1031,CPO_EEG,2020.1.3,143.72923235788303,
stimoli/02.subtle/JM1_Anger.mp4,angry,subtle,maschio,7,10,1646,926,7,,,,,,,,,,,,,,,,,1,0,1,0,,,,,,,,,0,32,32,6,,,0.0042164234619122,0.00783303911157418,2373.677778340847,None,0.006194913645231281,0.012628550864974386,-9.0,62.0,1,0,0,10.265467799419639,click_1,0.006194913645231281,None,2384.1053286386177,None,2384.1053286386177,None,0.0054043001673562685,0.011056625244236784,2394.371031216562,None,0.006107994273406803,0.012481333182222443,-16.0,101.0,1,0,0,1.909440598466972,click_2,0.006107994273406803,None,2394.872909765503,None,2394.872909765503,None,2394.872909765503,None,0.005382810875744326,0.010988950012688292,,,04,001,moebius,23,m,13,1,sofia,2022_Nov_07_1031,CPO_EEG,2020.1.3,143.72923235788303,
stimoli/01.full/F03-Disgust-Face Forward.mp4,disgusted,full,femmina,2,6,720,576,38,,,,,,,,,,,,,,,,,1,0,1,0,,,,,,,,,0,33,33,37,,,0.004248817767802393,0.008380534936804906,2398.369161648223,None,0.005836331141836126,0.011915876159036998,-14.0,98.0,1,0,0,4.215761785753784,click_1,0.005836331141836126,None,2404.392545525223,None,2404.392545525223,None,0.005420016215794021,0.011065605844123638,2408.608933707781,None,0.006123068849774427,0.012507954244938446,-28.0,133.0,1,0,0,1.5957007946544763,click_2,0.006123068849774427,None,2409.110704489529,None,2409.110704489529,None,2409.110704489529,None,0.005354906872526044,0.010971309551678132,,,04,001,moebius,23,m,13,1,sofia,2022_Nov_07_1031,CPO_EEG,2020.1.3,143.72923235788303,
stimoli/02.subtle/JF2_Anger.mp4,angry,subtle,femmina,6,9,1646,926,6,,,,,,,,,,,,,,,,,1,0,1,0,,,,,,,,,0,34,34,5,,,0.0033610213777137687,0.007166229612266761,2412.2936620703094,None,0.006212233371115872,0.012683396666034241,-22.0,94.0,1,0,0,3.2753596088568884,click_1,0.006212233371115872,None,2421.7986042865687,None,2421.7986042865687,None,0.0054520897847396554,0.011115961346149561,2425.0741666003814,None,0.006126276206487091,0.012469465960748494,-22.0,-91.0,1,0,0,2.2229061732650734,click_2,0.006126276206487091,None,2425.575922628288,None,2425.575922628288,None,2425.575922628288,None,0.005367415562432143,0.010994402520736912,,,04,001,moebius,23,m,13,1,sofia,2022_Nov_07_1031,CPO_EEG,2020.1.3,143.72923235788303,
stimoli/01.full/M03-Joy-Face Forward.mp4,happy,full,maschio,4,6,720,576,44,,,,,,,,,,,,,,,,,1,0,1,0,,,,,,,,,0,35,35,43,,,0.005523966652617673,0.009104659902732237,2429.390574604404,None,0.00623019457088958,0.012665435469898512,115.0,75.0,1,0,0,4.752893035929446,click_1,0.00623019457088958,None,2435.4172383245786,None,2435.4172383245786,None,0.005461711854877649,0.011160543606820283,2440.1703934015677,None,0.00611537119402783,0.012462089041946456,138.0,23.0,1,0,0,1.5818623325430963,click_2,0.00611537119402783,None,2440.6721459013825,None,2440.6721459013825,None,2440.6721459013825,None,0.005387621909903828,0.011031287123842048,,,04,001,moebius,23,m,13,1,sofia,2022_Nov_07_1031,CPO_EEG,2020.1.3,143.72923235788303,
stimoli/02.subtle/JM2_Surprise.mp4,surprised,subtle,maschio,8,10,1646,926,24,,,,,,,,,,,,,,,,,1,0,1,0,,,,,,,,,0,36,36,23,,,0.006320770327874925,0.01018820128592779,2443.8385955368976,None,0.006205497922564973,0.012636889992791112,0.0,0.0,1,0,0,9.443588685982832,click_1,0.006205497922564973,None,2454.8235918420232,None,2454.8235918420232,None,0.0055152747154352255,0.011250349602050846,2464.2675025466415,None,0.006182404951687204,0.012577233153933776,18.0,-92.0,1,0,0,1.9721238989150152,click_2,0.006182404951687204,None,2464.7693435695055,None,2464.7693435695055,None,2464.7693435695055,None,0.00536356673364935,0.010982214564137394,,,04,001,moebius,23,m,13,1,sofia,2022_Nov_07_1031,CPO_EEG,2020.1.3,143.72923235788303,
stimoli/01.full/M02-Anger-Face Forward.mp4,angry,full,maschio,3,6,720,576,35,,,,,,,,,,,,,,,,,1,0,1,0,,,,,,,,,0,37,37,34,,,0.005275492712826235,0.009305857402068796,2468.327121217564,None,0.00621896882148576,0.012681472253461834,-18.0,93.0,1,0,0,4.871327255605138,click_1,0.00621896882148576,None,2474.3532829863834,None,2474.3532829863834,None,0.005423865042757825,0.011102169712103205,2479.224825776373,None,0.00611537119402783,0.012461126832931768,-14.0,93.0,1,0,0,1.9510310369496437,click_2,0.00611537119402783,None,2479.7266459514176,None,2479.7266459514176,None,2479.7266459514176,None,0.0053991683962522075,0.011060474071200588,,,04,001,moebius,23,m,13,1,sofia,2022_Nov_07_1031,CPO_EEG,2020.1.3,143.72923235788303,
stimoli/02.subtle/JM2_Fear.mp4,fear,subtle,maschio,8,10,1646,926,4,,,,,,,,,,,,,,,,,1,0,1,0,,,,,,,,,0,38,38,3,,,0.00600227978611656,0.00946462156753114,2483.261986534233,None,0.006206460127941682,0.01263817293511238,18.0,-93.0,1,0,0,6.223755802107917,click_1,0.006206460127941682,None,2493.8874336397857,None,2493.8874336397857,None,0.005430600494946702,0.011088378078056849,2500.1114383327895,None,0.0061288420929486165,0.012525594707767596,-36.0,-52.0,1,0,0,2.515807458516065,click_2,0.0061288420929486165,None,2500.613245357672,None,2500.613245357672,None,2500.613245357672,None,0.005390508533309912,0.011036418896765099,,,04,001,moebius,23,m,13,1,sofia,2022_Nov_07_1031,CPO_EEG,2020.1.3,143.72923235788303,
stimoli/01.full/M02-Surprise-Face Forward.mp4,surprised,full,maschio,3,6,720,576,51,,,,,,,,,,,,,,,,,1,0,1,0,,,,,,,,,0,39,39,50,,,0.0006642756870860467,0.004804011246960727,2504.719547108374,None,0.006205818657690543,0.012616683643500437,27.0,-144.0,1,0,0,2.445948979931927,click_1,0.006205818657690543,None,2510.7453679351547,None,2510.7453679351547,None,0.005439901828140137,0.011135846960314666,2513.191586974539,None,0.006116333401223528,0.012503143208959955,119.0,79.0,1,0,0,1.6584726181517908,click_2,0.006116333401223528,None,2513.6933795663135,None,2513.6933795663135,None,2513.6933795663135,None,0.005360680112062255,0.01097868647048017,,,04,001,moebius,23,m,13,1,sofia,2022_Nov_07_1031,CPO_EEG,2020.1.3,143.72923235788303,
stimoli/02.subtle/JM2_Disgust.mp4,disgusted,subtle,maschio,8,10,1646,926,12,,,,,,,,,,,,,,,,,1,0,1,0,,,,,,,,,0,40,40,11,,,0.0006213933265826199,0.0041122805851046,2516.934823300293,None,0.0062183273512346204,0.012678906368819298,-87.0,57.0,1,0,0,8.153862363335065,click_1,0.0062183273512346204,None,2527.556118161594,None,2527.556118161594,None,0.0053860182324569905,0.010995043990988052,2535.7101777773787,None,0.0061105601580493385,0.012485823483075364,-16.0,-93.0,1,0,0,1.9719276086725586,click_2,0.0061105601580493385,None,2536.2120444590983,None,2536.2120444590983,None,2536.2120444590983,None,0.0054139222356752725,0.011033211536414456,,,04,001,moebius,23,m,13,1,sofia,2022_Nov_07_1031,CPO_EEG,2020.1.3,143.72923235788303,
stimoli/01.full/F03-Sadness-Face Forward.mp4,sad,full,femmina,2,6,720,576,46,,,,,,,,,,,,,,,,,1,0,1,0,,,,,,,,,0,41,41,45,,,0.00521551513702434,0.008888580267012003,2539.769322400951,None,0.006187536724610254,0.012579478303450742,-18.0,-93.0,1,0,0,3.2336251600481773,click_1,0.006187536724610254,None,2545.792030808587,None,2545.792030808587,None,0.00544375065692293,0.011121093117253622,2549.0259273110296,None,0.006105749122070847,0.012440920485460083,-29.0,146.0,1,0,0,1.7561032794583298,click_2,0.006105749122070847,None,2549.5278106710048,None,2549.5278106710048,None,2549.5278106710048,None,0.005358114227419719,0.010936670096270973,,,04,001,moebius,23,m,13,1,sofia,2022_Nov_07_1031,CPO_EEG,2020.1.3,143.72923235788303,
stimoli/02.subtle/JF2_Surprise.mp4,surprised,subtle,femmina,6,10,1646,926,22,,,,,,,,,,,,,,,,,1,0,1,0,,,,,,,,,0,42,42,21,,,0.005269751545711188,0.00923564836011792,2552.8899988838402,None,0.006215440727828536,0.01263817293511238,24.0,-100.0,1,0,0,8.558183057972201,click_1,0.006215440727828536,None,2563.313505346023,None,2563.313505346023,None,0.005435090793980635,0.011095434263552306,2571.8719305594404,None,0.0061288420929486165,0.012520462936663534,98.0,24.0,1,0,0,3.149831677910697,click_2,0.0061288420929486165,None,2572.373742395357,None,2572.373742395357,None,2572.373742395357,None,0.005272798533042078,0.01080645140427805,,,04,001,moebius,23,m,13,1,sofia,2022_Nov_07_1031,CPO_EEG,2020.1.3,143.72923235788303,
stimoli/01.full/F03-Surprise-Face Forward.mp4,surprised,full,femmina,2,6,720,576,50,,,,,,,,,,,,,,,,,1,0,1,0,,,,,,,,,0,43,43,49,,,0.003705266992255929,0.0073914822860388085,2577.10359506221,None,0.006223138387213112,0.012693980947005912,19.0,-137.0,1,0,0,12.969810753113052,click_1,0.006223138387213112,None,2583.126354787557,None,2583.126354787557,None,0.0053972439836798,0.011009797834049095,2596.0963297573435,None,0.0061285213560040575,0.012502822473834385,-36.0,-52.0,1,0,0,2.0070702975663153,click_2,0.0061285213560040575,None,2596.5981717424165,None,2596.5981717424165,None,2596.5981717424165,None,0.005388263381973957,0.011022947996025323,,,04,001,moebius,23,m,13,1,sofia,2022_Nov_07_1031,CPO_EEG,2020.1.3,143.72923235788303,
stimoli/02.subtle/JF1_Happiness.mp4,happy,subtle,femmina,5,10,1646,926,13,,,,,,,,,,,,,,,,,1,0,1,0,,,,,,,,,0,44,44,12,,,0.0024786774902167963,0.006419556922992342,2600.1937532233933,None,0.00619010260925279,0.012639135142308078,141.0,23.0,1,0,0,7.875140802967508,click_1,0.00619010260925279,None,2611.0167010281493,None,2611.0167010281493,None,0.005428676078736316,0.011057266714487923,2618.892024650462,None,0.006141030047729146,0.012497690700911335,136.0,-35.0,1,0,0,1.9790681473532459,click_2,0.006141030047729146,None,2619.393795111475,None,2619.393795111475,None,2619.393795111475,None,0.005247781151410891,0.010764435030068853,,,04,001,moebius,23,m,13,1,sofia,2022_Nov_07_1031,CPO_EEG,2020.1.3,143.72923235788303,
stimoli/02.subtle/JM2_Happiness.mp4,happy,subtle,maschio,8,10,1646,926,16,,,,,,,,,,,,,,,,,1,0,1,0,,,,,,,,,0,45,45,15,,,0.0035358223285584245,0.007117477785868687,2622.9596315644976,None,0.006229873833945021,0.012676340480538784,79.0,52.0,1,0,0,3.561033436055368,click_1,0.006229873833945021,None,2633.5832905685747,None,2633.5832905685747,None,0.005551197111344663,0.011349136193530285,2637.144674568739,None,0.0061336531271081185,0.012497369967604754,-16.0,-63.0,1,0,0,2.0975963425862574,click_2,0.0061336531271081185,None,2637.64641391839,None,2637.64641391839,None,2637.64641391839,None,0.005373188807425322,0.010971951023748261,,,04,001,moebius,23,m,13,1,sofia,2022_Nov_07_1031,CPO_EEG,2020.1.3,143.72923235788303,
stimoli/02.subtle/JF1_Neutral.mp4,neutral,subtle,femmina,5,10,1646,926,25,,,,,,,,,,,,,,,,,1,0,1,0,,,,,,,,,0,46,46,24,,,0.005033144825574709,0.009018285782076418,2641.3435730340825,None,0.006194272174980142,0.012600646859937115,83.0,-57.0,1,0,0,13.046412378856985,click_1,0.006194272174980142,None,2652.1668851945833,None,2652.1668851945833,None,0.005438298150693299,0.011081321892561391,2665.213527220196,None,0.006048978904800606,0.01231647503664135,50.0,32.0,1,0,0,8.634719253634103,click_2,0.006048978904800606,None,2665.7153756199823,None,2665.7153756199823,None,2665.7153756199823,None,0.005312569759553298,0.01084044938943407,,,04,001,moebius,23,m,13,1,sofia,2022_Nov_07_1031,CPO_EEG,2020.1.3,143.72923235788303,
stimoli/01.full/F03-Joy-Face Forward.mp4,happy,full,femmina,2,6,720,576,42,,,,,,,,,,,,,,,,,1,0,1,0,,,,,,,,,0,47,47,41,,,0.003006287703101407,0.0066277143851039,2675.9375845138547,None,0.006186895250721136,0.01263207895681262,114.0,73.0,1,0,0,3.6727796751074493,click_1,0.006186895250721136,None,2681.9615870900034,None,2681.9615870900034,None,0.00544375065692293,0.011117885760540958,2685.63458486538,None,0.006032942121237284,0.012298193103561061,124.0,74.0,1,0,0,1.972135124664419,click_2,0.006032942121237284,None,2686.1364383969376,None,2686.1364383969376,None,2686.1364383969376,None,0.005379924255976221,0.011016212547474424,,,04,001,moebius,23,m,13,1,sofia,2022_Nov_07_1031,CPO_EEG,2020.1.3,143.72923235788303,
stimoli/01.full/F01-Fear-Face Forward.mp4,fear,full,femmina,1,6,720,576,29,,,,,,,,,,,,,,,,,1,0,1,0,,,,,,,,,0,48,48,28,,,0.00357216168231389,0.007591621359097189,2689.689358182224,None,0.006208705279277638,0.012627267922653118,13.0,-63.0,1,0,0,3.5610921306852106,click_1,0.006208705279277638,None,2695.71224235302,None,2695.71224235302,None,0.005439260356070008,0.01108773660598672,2699.2735878649,None,0.006105107651819708,0.012479729504775605,-80.0,-122.0,1,0,0,2.5782700928084523,click_2,0.006105107651819708,None,2699.775405794795,None,2699.775405794795,None,2699.775405794795,None,0.005370622919144807,0.010947254373604665,,,04,001,moebius,23,m,13,1,sofia,2022_Nov_07_1031,CPO_EEG,2020.1.3,143.72923235788303,
stimoli/02.subtle/JF1_Fear.mp4,fear,subtle,femmina,5,10,1646,926,1,,,,,,,,,,,,,,,,,1,0,1,0,,,,,,,,,0,49,49,0,,,0.0005584329101111507,0.004314889320085058,2703.943701584947,None,0.006196838057803689,0.012621815414604498,-61.0,-78.0,1,0,0,5.157112057351696,click_1,0.006196838057803689,None,2714.767500301492,None,2714.767500301492,None,0.005410394145656028,0.011074586442191503,2719.92488722933,None,0.006110239422923769,0.012450542557417066,-21.0,-97.0,1,0,0,2.0625646282423986,click_2,0.006110239422923769,None,2720.4266333144315,None,2720.4266333144315,None,2720.4266333144315,None,0.005344001858247793,0.010916784483924857,,,04,001,moebius,23,m,13,1,sofia,2022_Nov_07_1031,CPO_EEG,2020.1.3,143.72923235788303,
stimoli/02.subtle/JF2_Neutral.mp4,neutral,subtle,femmina,6,9,1646,926,26,,,,,,,,,,,,,,,,,1,0,1,0,,,,,,,,,0,50,50,25,,,0.0007829478945495794,0.004413355176438927,2724.0789179789026,None,0.006164123018606915,0.012573063590025413,-35.0,59.0,1,0,0,4.725211621409471,click_1,0.006164123018606915,None,2733.581723774725,None,2733.581723774725,None,0.005412318560047424,0.011089661020378117,2738.3072301522334,None,0.00611569192733441,0.012464013454518863,-33.0,60.0,1,0,0,2.643516392159654,click_2,0.00611569192733441,None,2738.8090445540365,None,2738.8090445540365,None,2738.8090445540365,None,0.005353944665330346,0.010934745683698566,,,04,001,moebius,23,m,13,1,sofia,2022_Nov_07_1031,CPO_EEG,2020.1.3,143.72923235788303,
stimoli/01.full/F01-Surprise-Face Forward.mp4,surprised,full,femmina,1,6,720,576,49,,,,,,,,,,,,,,,,,1,0,1,0,,,,,,,,,0,51,51,48,,,0.001885091947769979,0.005993074675643584,2743.032276594762,None,0.00620742233695637,0.01262662645058299,20.0,-144.0,1,0,0,2.717844643328135,click_1,0.00620742233695637,None,2749.053059946784,None,2749.053059946784,None,0.005232065101154149,0.010672063150195754,2751.7711012010914,None,0.006118578550740494,0.012469145227441913,19.0,-99.0,1,0,0,2.947779739255566,click_2,0.006118578550740494,None,2752.272848248398,None,2752.272848248398,None,2752.272848248398,None,0.005382490140618756,0.010974837643516366,,,04,001,moebius,23,m,13,1,sofia,2022_Nov_07_1031,CPO_EEG,2020.1.3,143.72923235788303,
stimoli/02.subtle/JF1_Surprise.mp4,surprised,subtle,femmina,5,10,1646,926,21,,,,,,,,,,,,,,,,,1,0,1,0,,,,,,,,,0,52,52,20,,,0.004744995881992509,0.008576825177442515,2756.806577134368,None,0.006194272173161153,0.012617325113751576,12.0,-93.0,1,0,0,4.341676844680478,click_1,0.006194272173161153,None,2767.6312104051794,None,2767.6312104051794,None,0.005413922237494262,0.011040588458854472,2771.973114330727,None,0.0061054283869452775,0.012444448579117307,54.0,-81.0,1,0,0,1.7070775461925223,click_2,0.0061054283869452775,None,2772.4748597743564,None,2772.4748597743564,None,2772.4748597743564,None,0.005394678095399286,0.011019740639312658,,,04,001,moebius,23,m,13,1,sofia,2022_Nov_07_1031,CPO_EEG,2020.1.3,143.72923235788303,
stimoli/02.subtle/JM1_Sadness.mp4,sad,subtle,maschio,7,10,1646,926,19,,,,,,,,,,,,,,,,,1,0,1,0,,,,,,,,,0,53,53,18,,,0.005927869107836159,0.009459169063120498,2775.766441552976,None,0.0062045357135502854,0.01267281238870055,-10.0,-65.0,1,0,0,8.495838775150332,click_1,0.0062045357135502854,None,2786.1931675600226,None,2786.1931675600226,None,0.005439581093014567,0.011089019548307988,2794.689210002334,None,0.006113446777817444,0.01252302882130607,-57.0,-33.0,1,0,0,4.042226778094118,click_2,0.006113446777817444,None,2795.191100739232,None,2795.191100739232,None,2795.191100739232,None,0.005368377771446831,0.010999855028785532,,,04,001,moebius,23,m,13,1,sofia,2022_Nov_07_1031,CPO_EEG,2020.1.3,143.72923235788303,
stimoli/02.subtle/JF1_Anger.mp4,angry,subtle,femmina,5,10,1646,926,5,,,,,,,,,,,,,,,,,1,0,1,0,,,,,,,,,0,54,54,4,,,0.00607691498407803,0.010025171337474603,2800.8249161596905,None,0.006189140402057092,0.012605457894096617,-28.0,103.0,1,0,0,8.502306089616468,click_1,0.006189140402057092,None,2811.646232702724,None,2811.646232702724,None,0.005428355345429736,0.011077473065597587,2820.1487892869154,None,0.0060278103501332225,0.012286967354157241,-32.0,53.0,1,0,0,2.599182380577986,click_2,0.0060278103501332225,None,2820.6505886141385,None,2820.6505886141385,None,2820.6505886141385,None,0.005375433953304309,0.010956555706798099,,,04,001,moebius,23,m,13,1,sofia,2022_Nov_07_1031,CPO_EEG,2020.1.3,143.72923235788303,
stimoli/01.full/M03-Fear-Face Forward.mp4,fear,full,maschio,4,6,720,576,32,,,,,,,,,,,,,,,,,1,0,1,0,,,,,,,,,0,55,55,31,,,0.001346255989119527,0.0049263077689829515,2824.832154843494,None,0.006197800268637366,0.012606420103111304,16.0,-99.0,1,0,0,5.777732732232835,click_1,0.006197800268637366,None,2830.8530289637147,None,2830.8530289637147,None,0.005148673821167904,0.010515864869375946,2836.6308454079626,None,0.006123068849774427,0.012509878659329843,-61.0,-78.0,1,0,0,2.808488398348345,click_2,0.006123068849774427,None,2837.132697656576,None,2837.132697656576,None,2837.132697656576,None,0.005458183763039415,0.011140978731418727,,,04,001,moebius,23,m,13,1,sofia,2022_Nov_07_1031,CPO_EEG,2020.1.3,143.72923235788303,
,,,,,,,,,,,,,,,,,,,,,,,,,1,0,1,0,,,,,,,,,,,,,,,,,,,,,,,,,,,,,,,,,,,,,,,,,,,,,,,,,,,,,,,,,,,04,001,moebius,23,m,13,1,sofia,2022_Nov_07_1031,CPO_EEG,2020.1.3,143.72923235788303,
