file,file_emotion,file_emotion_level,file_gender,file_id,file_duration,size_w,size_h,trigger,loop_practice_full.thisRepN,loop_practice_full.thisTrialN,loop_practice_full.thisN,loop_practice_full.thisIndex,loop_istr_practice.thisRepN,loop_istr_practice.thisTrialN,loop_istr_practice.thisN,loop_istr_practice.thisIndex,tuto.thisRepN,tuto.thisTrialN,tuto.thisN,tuto.thisIndex,loop_practice.thisRepN,loop_practice.thisTrialN,loop_practice.thisN,loop_practice.thisIndex,exp_blocks.thisRepN,exp_blocks.thisTrialN,exp_blocks.thisN,exp_blocks.thisIndex,istr_1.thisRepN,istr_1.thisTrialN,istr_1.thisN,istr_1.thisIndex,istr_2.thisRepN,istr_2.thisTrialN,istr_2.thisN,istr_2.thisIndex,exp.thisRepN,exp.thisTrialN,exp.thisN,exp.thisIndex,img_tutorial.started,img_tutorial.stopped,p_port.started,p_port.stopped,mov_target.started,mov_target.stopped,p_port_2.started,p_port_2.stopped,primary.x,primary.y,primary.leftButton,primary.midButton,primary.rightButton,primary.time,primary.clicked_name,primary.started,primary.stopped,img_primary_wheel.started,img_primary_wheel.stopped,click_1.started,click_1.stopped,p_port_4.started,p_port_4.stopped,txt_iwi.started,txt_iwi.stopped,p_port_3.started,p_port_3.stopped,secondary.x,secondary.y,secondary.leftButton,secondary.midButton,secondary.rightButton,secondary.time,secondary.clicked_name,secondary.started,secondary.stopped,img_secondary_wheel.started,img_secondary_wheel.stopped,click_2.started,click_2.stopped,primary_pos.started,primary_pos.stopped,p_port_5.started,p_port_5.stopped,kb_end_practice.keys,kb_end_practice.rt,participant,session,group,age,sex,education,practice,experimenter,date,expName,psychopyVersion,frameRate,
stimoli/03.practice/F04-Anger-Face Forward.mp4,anger,full,femmina,9,6,700,700,57,0,0,0,0,,,,,,,,,0,0,0,0,,,,,,,,,,,,,,,,,147.21931918922564,None,0.005218210732891748,0.010285867153470463,156.2512890450098,None,0.005798232863526209,0.011900268521458202,-27.0,151.0,1,0,0,12.026605516945892,click_1,0.005798232863526209,None,162.27925801812307,None,162.27925801812307,None,0.00471606370228983,0.009707705276014167,174.3064071855515,None,0.005859493773641589,0.011948379184104851,-130.0,82.0,1,0,0,10.196378421790541,click_2,0.005859493773641589,None,174.80823988104476,None,174.80823988104476,None,174.80823988104476,None,0.004589693027810426,0.009446945486160985,,,06_control,001,control,40,f,14,1,alice e filo,2023_Mar_20_1123,CPO_EEG,2020.1.3,143.73294854711418,
stimoli/03.practice/F04-Disgust-Face Forward.mp4,disgust,full,femmina,9,6,700,700,58,0,0,0,0,,,,,,,,,0,1,1,1,,,,,,,,,,,,,,,,,,,0.006373315645760158,0.010954412902719923,186.6779504344713,None,0.006199155048307148,0.012636682391530485,-128.0,78.0,1,0,0,2.5714603702845125,click_1,0.006199155048307148,None,192.69843274706727,None,192.69843274706727,None,0.00525714828290802,0.01076164951609826,195.27011538861188,None,0.0061180083976069,0.012512556882029457,-122.0,82.0,1,0,0,6.669290836010077,click_2,0.0061180083976069,None,195.77189131352316,None,195.77189131352316,None,195.77189131352316,None,0.0051888311418224475,0.010640410647283716,,,06_control,001,control,40,f,14,1,alice e filo,2023_Mar_20_1123,CPO_EEG,2020.1.3,143.73294854711418,
stimoli/03.practice/F04-Joy-Face Forward.mp4,joy,full,femmina,9,6,700,700,59,0,0,0,0,,,,,,,,,0,2,2,2,,,,,,,,,,,,,,,,,,,0.004086968682713632,0.007796621477609733,204.06141967507938,None,0.006191457342538342,0.012633154276045389,112.0,82.0,1,0,0,8.258899831035706,click_1,0.006191457342538342,None,210.0820440744983,None,210.0820440744983,None,0.005410781663158559,0.011074368820118252,218.3411722708097,None,0.006113838807323191,0.012499406634560728,119.0,82.0,1,0,0,6.808107737092541,click_2,0.006113838807323191,None,218.84292766850558,None,218.84292766850558,None,218.84292766850558,None,0.005345030425814912,0.010924905030151422,,,06_control,001,control,40,f,14,1,alice e filo,2023_Mar_20_1123,CPO_EEG,2020.1.3,143.73294854711418,
stimoli/03.practice/F04-Sadness-Face Forward.mp4,sadness,full,femmina,9,6,700,700,60,0,0,0,0,,,,,,,,,0,3,3,3,,,,,,,,,,,,,,,,,,,0.00030726676504855277,0.0043556186219575466,227.28864120094477,None,0.0061481577477024985,0.012508387292655243,-34.0,-145.0,1,0,0,10.695953444273982,click_1,0.0061481577477024985,None,233.3139409945179,None,233.3139409945179,None,0.005368123544030823,0.010990977006258618,244.0101840649786,None,0.0061103106918380945,0.012472785401769215,-88.0,-54.0,1,0,0,5.156050140290972,click_2,0.0061103106918380945,None,244.5119019363574,None,244.5119019363574,None,244.5119019363574,None,0.005318729929967958,0.010892510516896436,,,06_control,001,control,40,f,14,1,alice e filo,2023_Mar_20_1123,CPO_EEG,2020.1.3,143.73294854711418,
stimoli/03.practice/F04-Neutral-Face Forward.mp4,neutral,full,femmina,9,6,700,700,62,0,0,0,0,,,,,,,,,0,4,4,5,,,,,,,,,,,,,,,,,,,0.003256001325098623,0.0070615547065244755,251.28204747431846,None,0.006063803720280703,0.012366621208457218,4.0,1.0,1,0,0,2.7591156875396337,click_1,0.006063803720280703,None,257.3071638058991,None,257.3071638058991,None,0.005426818551313772,0.011078538411311456,260.0666294183229,None,0.006128592744971684,0.012498444422817556,-1.0,-1.0,1,0,0,1.3725109147053445,click_2,0.006128592744971684,None,260.5684091920866,None,260.5684091920866,None,260.5684091920866,None,0.005383839691603498,0.011034597338948515,,,06_control,001,control,40,f,14,1,alice e filo,2023_Mar_20_1123,CPO_EEG,2020.1.3,143.73294854711418,
stimoli/03.practice/F04-Surprise-Face Forward.mp4,surprise,full,femmina,9,6,700,700,61,0,0,0,0,,,,,,,,,0,5,5,4,,,,,,,,,,,,,,,,,,,0.0007469982165275724,0.005018583546188893,263.54472591676404,None,0.006171250865008915,0.012567403037792246,37.0,-130.0,1,0,0,2.8777848054978676,click_1,0.006171250865008915,None,269.76576939212464,None,269.76576939212464,None,0.005431629616396094,0.011091047183072078,272.64380950487066,None,0.006092028640523495,0.01240767563922418,0.0,0.0,1,0,0,1.6232210280795698,click_2,0.006092028640523495,None,273.14550428313123,None,273.14550428313123,None,273.14550428313123,None,0.005301410091306025,0.010849531659005152,,,06_control,001,control,40,f,14,1,alice e filo,2023_Mar_20_1123,CPO_EEG,2020.1.3,143.73294854711418,
,,,,,,,,,0,0,0,0,,,,,,,,,,,,,,,,,,,,,,,,,,,,,,,,,,,,,,,,,,,,,,,,,,,,,,,,,,,,,,,,,,,,,,,,,n,43.84598718588495,06_control,001,control,40,f,14,1,alice e filo,2023_Mar_20_1123,CPO_EEG,2020.1.3,143.73294854711418,
,,,,,,,,,,,,,,,,,,,,,,,,,0,0,0,0,0,0,0,0,,,,,,,,,,,,,,,,,,,,,,,,,,,,,,,,,,,,,,,,,,,,,,,,,,,,,,,06_control,001,control,40,f,14,1,alice e filo,2023_Mar_20_1123,CPO_EEG,2020.1.3,143.73294854711418,
stimoli/01.full/M02-Neutral-Face Forward.mp4,neutral,full,maschio,3,6,720,576,55,,,,,,,,,,,,,,,,,0,0,0,0,,,,,,,,,0,0,0,54,,,0.004198072237159067,0.006858912595816946,328.426034988639,None,0.005869757382242824,0.011959605006268248,1.0,5.0,1,0,0,2.103136109553816,click_1,0.005869757382242824,None,334.44832658287214,None,334.44832658287214,None,0.004601239587827877,0.009455926143346005,336.5520740185739,None,0.005825816310789378,0.011898023358298815,0.0,0.0,1,0,0,0.7169056376715162,click_2,0.005825816310789378,None,337.05360457910865,None,337.05360457910865,None,337.05360457910865,None,0.004458190550394647,0.009153470446108258,,,06_control,001,control,40,f,14,1,alice e filo,2023_Mar_20_1123,CPO_EEG,2020.1.3,143.73294854711418,
stimoli/02.subtle/JM2_Surprise.mp4,surprised,subtle,maschio,8,10,1646,926,24,,,,,,,,,,,,,,,,,0,0,0,0,,,,,,,,,0,1,1,23,,,0.004651210528209049,0.007158417505706893,339.3817558595574,None,0.006228662921785144,0.012692811497799994,0.0,0.0,1,0,0,0.7939266382963979,click_1,0.006228662921785144,None,350.36774603471895,None,350.36774603471895,None,0.005468514457788842,0.01116353391444136,351.16189141615996,None,0.006177986358125054,0.012598514599631017,28.0,-111.0,1,0,0,10.850627619625811,click_2,0.006177986358125054,None,351.66337963931073,None,351.66337963931073,None,351.66337963931073,None,0.005324503209521936,0.010880643219934427,,,06_control,001,control,40,f,14,1,alice e filo,2023_Mar_20_1123,CPO_EEG,2020.1.3,143.73294854711418,
stimoli/01.full/M03-Neutral-Face Forward.mp4,neutral,full,maschio,4,6,720,576,56,,,,,,,,,,,,,,,,,0,0,0,0,,,,,,,,,0,2,2,55,,,0.0048798965426612995,0.00903954439854715,364.1269367748919,None,0.006179269308631774,0.012626418783838744,0.0,0.0,1,0,0,4.173690716438614,click_1,0.006179269308631774,None,370.1492537074073,None,370.1492537074073,None,0.005386726333199476,0.011016636026397464,374.3231654121546,None,0.006182155947499268,0.012589213204591942,0.0,0.0,1,0,0,0.3620346576381053,click_2,0.006182155947499268,None,374.8248245885252,None,374.8248245885252,None,374.8248245885252,None,0.005368444280975382,0.01096435577255761,,,06_control,001,control,40,f,14,1,alice e filo,2023_Mar_20_1123,CPO_EEG,2020.1.3,143.73294854711418,
stimoli/01.full/M03-Sadness-Face Forward.mp4,sad,full,maschio,4,6,720,576,48,,,,,,,,,,,,,,,,,0,0,0,0,,,,,,,,,0,3,3,47,,,0.0007184525575212319,0.0045403635640468565,376.78996231972906,None,0.006226097019862209,0.012694415186160768,-25.0,-145.0,1,0,0,3.7140853906521443,click_1,0.006226097019862209,None,382.81535512724895,None,382.81535512724895,None,0.005433554044429911,0.011112536612927215,386.5296502803885,None,0.0061308379081310704,0.01248593565014744,-32.0,-190.0,1,0,0,6.452377179894029,click_2,0.0061308379081310704,None,387.03136783103037,None,387.03136783103037,None,387.03136783103037,None,0.005337653456990665,0.01090983035555837,,,06_control,001,control,40,f,14,1,alice e filo,2023_Mar_20_1123,CPO_EEG,2020.1.3,143.73294854711418,
stimoli/01.full/F03-Anger-Face Forward.mp4,angry,full,femmina,2,6,720,576,34,,,,,,,,,,,,,,,,,0,0,0,0,,,,,,,,,0,4,4,33,,,0.0007867696967878146,0.004490969949983992,395.0867169027506,None,0.006192419555191009,0.012616796650945616,-41.0,201.0,1,0,0,1.9020364281104776,click_1,0.006192419555191009,None,401.1095723539456,None,401.1095723539456,None,0.005348879278244567,0.010914641421550186,403.011796092901,None,0.006110952167546202,0.012488501552070375,-40.0,147.0,1,0,0,1.3447013482536931,click_2,0.006110952167546202,None,403.5136175625721,None,403.5136175625721,None,403.5136175625721,None,0.005347596326828352,0.010933885686426947,,,06_control,001,control,40,f,14,1,alice e filo,2023_Mar_20_1123,CPO_EEG,2020.1.3,143.73294854711418,
stimoli/02.subtle/JF2_Anger.mp4,angry,subtle,femmina,6,9,1646,926,6,,,,,,,,,,,,,,,,,0,0,0,0,,,,,,,,,0,5,5,5,,,0.005350739557798079,0.009536046433822776,406.4708956152581,None,0.006213908985046146,0.012643738622500678,-23.0,137.0,1,0,0,2.1251759246551956,click_1,0.006213908985046146,None,415.97231231389196,None,415.97231231389196,None,0.005375821249799628,0.011005410205143562,418.09772462226647,None,0.006105499626755773,0.012484011223932612,-113.0,78.0,1,0,0,1.999592663059957,click_2,0.006105499626755773,None,418.5994652660256,None,418.5994652660256,None,418.5994652660256,None,0.005373255346057704,0.010964355771648115,,,06_control,001,control,40,f,14,1,alice e filo,2023_Mar_20_1123,CPO_EEG,2020.1.3,143.73294854711418,
stimoli/02.subtle/JF2_Happiness.mp4,happy,subtle,femmina,6,9,1646,926,14,,,,,,,,,,,,,,,,,0,0,0,0,,,,,,,,,0,6,6,13,,,0.0011097526094090426,0.00465262177567638,422.2015230552706,None,0.006184080373714096,0.012592741319167544,113.0,72.0,1,0,0,4.264336977341372,click_1,0.006184080373714096,None,431.7041803675138,None,431.7041803675138,None,0.005435478469735244,0.011114461038232548,435.9687845194003,None,0.0060981226570220315,0.012445522693269595,187.0,106.0,1,0,0,0.8985990816636331,click_2,0.0060981226570220315,None,436.4704812220871,None,436.4704812220871,None,436.4704812220871,None,0.005363953952837619,0.010959544706565794,,,06_control,001,control,40,f,14,1,alice e filo,2023_Mar_20_1123,CPO_EEG,2020.1.3,143.73294854711418,
stimoli/02.subtle/JM2_Sadness.mp4,sad,subtle,maschio,8,10,1646,926,20,,,,,,,,,,,,,,,,,0,0,0,0,,,,,,,,,0,7,7,19,,,0.003982279880801798,0.007433097312969039,438.96858566199626,None,0.006196589146384213,0.01263122984983056,-129.0,-21.0,1,0,0,8.891962376179436,click_1,0.006196589146384213,None,449.59131916869865,None,449.59131916869865,None,0.005418800107690913,0.011103555955742195,458.48354487056895,None,0.0060997263462923,0.012422429575053684,-13.0,-103.0,1,0,0,2.759368749623718,click_2,0.0060997263462923,None,458.9853435678606,None,458.9853435678606,None,458.9853435678606,None,0.005360746575206576,0.010968846100695373,,,06_control,001,control,40,f,14,1,alice e filo,2023_Mar_20_1123,CPO_EEG,2020.1.3,143.73294854711418,
stimoli/02.subtle/JM1_Sadness.mp4,sad,subtle,maschio,7,10,1646,926,19,,,,,,,,,,,,,,,,,0,0,0,0,,,,,,,,,0,8,8,18,,,0.00274352655014809,0.006572493786734412,463.3527483376156,None,0.006190495128976181,0.012601401239408005,65.0,-88.0,1,0,0,9.950352041752012,click_1,0.006190495128976181,None,473.77838817734937,None,473.77838817734937,None,0.00542617707651516,0.011092330134488293,483.729003865531,None,0.006112876594670524,0.012484652698731225,31.0,-53.0,1,0,0,8.075934020396744,click_2,0.006112876594670524,None,484.23072013322144,None,484.23072013322144,None,484.23072013322144,None,0.005262280085844395,0.010762611728750926,,,06_control,001,control,40,f,14,1,alice e filo,2023_Mar_20_1123,CPO_EEG,2020.1.3,143.73294854711418,
stimoli/01.full/M03-Fear-Face Forward.mp4,fear,full,maschio,4,6,720,576,32,,,,,,,,,,,,,,,,,0,0,0,0,,,,,,,,,0,9,9,31,,,0.0020472048981901025,0.0057032944896491244,493.9150112322359,None,0.0061885707027613535,0.012639569030397979,-85.0,-127.0,1,0,0,3.751546276683257,click_1,0.0061885707027613535,None,499.936736724344,None,499.936736724344,None,0.005426818550404278,0.011084953165664047,503.68848538654674,None,0.006061558554392832,0.012368866371616605,0.0,0.0,1,0,0,0.39619803888126626,click_2,0.006061558554392832,None,504.1894148845404,None,504.1894148845404,None,504.1894148845404,None,0.005375821248890134,0.010971732740472362,,,06_control,001,control,40,f,14,1,alice e filo,2023_Mar_20_1123,CPO_EEG,2020.1.3,143.73294854711418,
stimoli/01.full/F01-Neutral-Face Forward.mp4,neutral,full,femmina,1,6,720,576,53,,,,,,,,,,,,,,,,,0,0,0,0,,,,,,,,,0,10,10,52,,,0.002493094516466954,0.006762113944205339,506.1851218097818,None,0.006147837008029455,0.01251448130915378,-54.0,39.0,1,0,0,8.298901280770224,click_1,0.006147837008029455,None,512.2072232065302,None,512.2072232065302,None,0.0053636332140740706,0.01099161848105723,520.5064724877575,None,0.006101971511270676,0.012455144826162723,0.0,0.0,1,0,0,3.1563602936930693,click_2,0.006101971511270676,None,521.0081156272408,None,521.0081156272408,None,521.0081156272408,None,0.005333804603651515,0.010885775024689792,,,06_control,001,control,40,f,14,1,alice e filo,2023_Mar_20_1123,CPO_EEG,2020.1.3,143.73294854711418,
stimoli/02.subtle/JM2_Neutral.mp4,neutral,subtle,maschio,8,10,1646,926,28,,,,,,,,,,,,,,,,,0,0,0,0,,,,,,,,,0,11,11,27,,,0.001956949296982202,0.005464216573273006,525.7863370209616,None,0.006186004800838418,0.012642455671084463,67.0,11.0,1,0,0,5.790378958064139,click_1,0.006186004800838418,None,536.7703206607712,None,536.7703206607712,None,0.005422007484412461,0.011059935621233308,542.5608975140258,None,0.006117687661571836,0.012475030566747591,-4.0,0.0,1,0,0,0.8776292476904928,click_2,0.006117687661571836,None,543.0627064749251,None,543.0627064749251,None,543.0627064749251,None,0.005414630516497709,0.011046785373764578,,,06_control,001,control,40,f,14,1,alice e filo,2023_Mar_20_1123,CPO_EEG,2020.1.3,143.73294854711418,
stimoli/02.subtle/JF1_Happiness.mp4,happy,subtle,femmina,5,10,1646,926,13,,,,,,,,,,,,,,,,,0,0,0,0,,,,,,,,,0,12,12,12,,,0.005899521844185074,0.009593137751835457,545.5517686762378,None,0.006177665619361505,0.01257670443283132,109.0,70.0,1,0,0,2.905539525795575,click_1,0.006177665619361505,None,556.3743442516734,None,556.3743442516734,None,0.005429705191090761,0.011102914480034087,559.2801650644742,None,0.006013127155711118,0.01228419160725025,138.0,-24.0,1,0,0,2.487518811269183,click_2,0.006013127155711118,None,559.781913726677,None,559.781913726677,None,559.781913726677,None,0.005323220257196226,0.010918490273979842,,,06_control,001,control,40,f,14,1,alice e filo,2023_Mar_20_1123,CPO_EEG,2020.1.3,143.73294854711418,
stimoli/02.subtle/JF1_Anger.mp4,angry,subtle,femmina,5,10,1646,926,5,,,,,,,,,,,,,,,,,0,0,0,0,,,,,,,,,0,13,13,4,,,0.004070803499416797,0.008199339793463878,563.9036381924243,None,0.006180872996992548,0.012634757965315657,-67.0,-115.0,1,0,0,2.578070133798974,click_1,0.006180872996992548,None,574.7280820652431,None,574.7280820652431,None,0.005381594529353606,0.010988731842189736,577.3063597163646,None,0.006019862647917762,0.01224538233873318,-24.0,98.0,1,0,0,1.3653331246396192,click_2,0.006019862647917762,None,577.8081231325041,None,577.8081231325041,None,577.8081231325041,None,0.005282165826429264,0.010801100258504448,,,06_control,001,control,40,f,14,1,alice e filo,2023_Mar_20_1123,CPO_EEG,2020.1.3,143.73294854711418,
stimoli/02.subtle/JF1_Neutral.mp4,neutral,subtle,femmina,5,10,1646,926,25,,,,,,,,,,,,,,,,,0,0,0,0,,,,,,,,,0,14,14,24,,,0.0012850037137468462,0.004824024026675033,580.7961817454034,None,0.006177344882416946,0.012623852881915809,52.0,34.0,1,0,0,13.95724148858244,click_1,0.006177344882416946,None,591.6207465363532,None,591.6207465363532,None,0.005369406494537543,0.010976543807373673,605.5781907311921,None,0.005989392560877604,0.01221940258074028,2.0,2.0,1,0,0,0.8218497459120044,click_2,0.005989392560877604,None,606.0799775611868,None,606.0799775611868,None,606.0799775611868,None,0.0053459926375580835,0.010956978803733364,,,06_control,001,control,40,f,14,1,alice e filo,2023_Mar_20_1123,CPO_EEG,2020.1.3,143.73294854711418,
stimoli/01.full/F03-Surprise-Face Forward.mp4,surprised,full,femmina,2,6,720,576,50,,,,,,,,,,,,,,,,,0,0,0,0,,,,,,,,,0,15,15,49,,,0.0018663729570107535,0.006035001470081625,608.5722551584249,None,0.006168364224322431,0.012553932052469463,41.0,-184.0,1,0,0,2.4317396302276393,click_1,0.006168364224322431,None,614.5960516541727,None,614.5960516541727,None,0.005416875680566591,0.01108399095301138,617.0280751373075,None,0.0060978019200774725,0.012444881218470982,0.0,2.0,1,0,0,1.2051368074789934,click_2,0.0060978019200774725,None,617.5298058381968,None,617.5298058381968,None,617.5298058381968,None,0.005349841491806728,0.010912075519627251,,,06_control,001,control,40,f,14,1,alice e filo,2023_Mar_20_1123,CPO_EEG,2020.1.3,143.73294854711418,
stimoli/02.subtle/JM1_Happiness.mp4,happy,subtle,maschio,7,10,1646,926,15,,,,,,,,,,,,,,,,,0,0,0,0,,,,,,,,,0,16,16,14,,,0.0021539464223678806,0.005706116982764797,620.3837453958095,None,0.006187287752254633,0.0125937035336392,120.0,85.0,1,0,0,10.16681249542944,click_1,0.006187287752254633,None,630.8054286146817,None,630.8054286146817,None,0.005438685848275782,0.011094575298557174,640.9724896818661,None,0.006068294047508971,0.012383620308355603,81.0,-50.0,1,0,0,7.019524268942405,click_2,0.006068294047508971,None,641.4734323301082,None,641.4734323301082,None,641.4734323301082,None,0.005334446078450128,0.010889944614064007,,,06_control,001,control,40,f,14,1,alice e filo,2023_Mar_20_1123,CPO_EEG,2020.1.3,143.73294854711418,
stimoli/02.subtle/JF2_Neutral.mp4,neutral,subtle,femmina,6,9,1646,926,26,,,,,,,,,,,,,,,,,0,0,0,0,,,,,,,,,0,17,17,25,,,0.0030876140071995906,0.006783154341064801,650.1048498113414,None,0.006177024143653398,0.012614872224730789,2.0,-1.0,1,0,0,16.042057699437464,click_1,0.006177024143653398,None,659.6121642356884,None,659.6121642356884,None,0.005365557642107888,0.011006693156559777,675.6544413197462,None,0.006094915280300484,0.012426278428392834,0.0,0.0,1,0,0,0.28526800204781466,click_2,0.006094915280300484,None,676.1562255838389,None,676.1562255838389,None,676.1562255838389,None,0.005397310677835776,0.011018239714758238,,,06_control,001,control,40,f,14,1,alice e filo,2023_Mar_20_1123,CPO_EEG,2020.1.3,143.73294854711418,
stimoli/01.full/M03-Joy-Face Forward.mp4,happy,full,maschio,4,6,720,576,44,,,,,,,,,,,,,,,,,0,0,0,0,,,,,,,,,0,18,18,43,,,0.003899529541740776,0.007937297053103975,678.0419935518885,None,0.00616740201076027,0.01255489426512213,163.0,107.0,1,0,0,3.922821196402765,click_1,0.00616740201076027,None,684.0658352716582,None,684.0658352716582,None,0.005428101502729987,0.011080462837526284,687.9889323025245,None,0.00604135207595391,0.01232588751372532,26.0,135.0,1,0,0,0.8427839779951682,click_2,0.00604135207595391,None,688.4906126475871,None,688.4906126475871,None,688.4906126475871,None,0.005400518055466819,0.01101791897599469,,,06_control,001,control,40,f,14,1,alice e filo,2023_Mar_20_1123,CPO_EEG,2020.1.3,143.73294854711418,
stimoli/02.subtle/JF1_Sadness.mp4,sad,subtle,femmina,5,10,1646,926,17,,,,,,,,,,,,,,,,,0,0,0,0,,,,,,,,,0,19,19,16,,,0.006120766743151762,0.009892321922961855,690.951498358464,None,0.006194985458932933,0.012650474115616817,-73.0,-120.0,1,0,0,3.7696297916618278,click_1,0.006194985458932933,None,701.7730337813819,None,701.7730337813819,None,0.005411102401922108,0.011055124555241491,705.5428550534798,None,0.006115442495683965,0.012498444421908061,-7.0,-94.0,1,0,0,1.0240341624194116,click_2,0.006115442495683965,None,706.0445511146918,None,706.0445511146918,None,706.0445511146918,None,0.005363953952837619,0.010967242412334599,,,06_control,001,control,40,f,14,1,alice e filo,2023_Mar_20_1123,CPO_EEG,2020.1.3,143.73294854711418,
stimoli/01.full/F03-Disgust-Face Forward.mp4,disgusted,full,femmina,2,6,720,576,38,,,,,,,,,,,,,,,,,0,0,0,0,,,,,,,,,0,20,20,37,,,0.001074792195140617,0.005475955575093394,708.6720539917096,None,0.0061343660245256615,0.012528593771094165,-165.0,99.0,1,0,0,1.8532794793272842,click_1,0.0061343660245256615,None,714.695034209888,None,714.695034209888,None,0.005422969697974622,0.011134346778817417,716.5486244840931,None,0.006079840607526421,0.012391638752887957,-171.0,107.0,1,0,0,1.2678063975636178,click_2,0.006079840607526421,None,717.0503122061236,None,717.0503122061236,None,717.0503122061236,None,0.005357539197575534,0.010968525363750814,,,06_control,001,control,40,f,14,1,alice e filo,2023_Mar_20_1123,CPO_EEG,2020.1.3,143.73294854711418,
stimoli/02.subtle/JM1_Anger.mp4,angry,subtle,maschio,7,10,1646,926,7,,,,,,,,,,,,,,,,,0,0,0,0,,,,,,,,,0,21,21,6,,,0.0041203895552826,0.00786949309258489,719.9314490418274,None,0.006172533815515635,0.0125677237756463,-85.0,117.0,1,0,0,2.564077628798259,click_1,0.006172533815515635,None,730.3529609867428,None,730.3529609867428,None,0.005438685848275782,0.011099707102403045,732.9173025827085,None,0.006132762335255393,0.01250902876836335,-22.0,140.0,1,0,0,4.201567958555643,click_2,0.006132762335255393,None,733.4190730550781,None,733.4190730550781,None,733.4190730550781,None,0.0053315594404921285,0.010897963059505855,,,06_control,001,control,40,f,14,1,alice e filo,2023_Mar_20_1123,CPO_EEG,2020.1.3,143.73294854711418,
stimoli/02.subtle/JM2_Anger.mp4,angry,subtle,maschio,8,10,1646,926,8,,,,,,,,,,,,,,,,,0,0,0,0,,,,,,,,,0,22,22,7,,,0.00583960803305672,0.009261559068363567,739.2250113220425,None,0.006196909884238266,0.012636040915822377,-120.0,175.0,1,0,0,2.355074007028634,click_1,0.006196909884238266,None,750.210184578159,None,750.210184578159,None,0.00540532912236813,0.011076293247242575,752.5654847052992,None,0.006013127154801623,0.012304718822633731,-21.0,138.0,1,0,0,1.3166951695611715,click_2,0.006013127154801623,None,753.0672051425809,None,753.0672051425809,None,753.0672051425809,None,0.005312956651323475,0.01088737871396006,,,06_control,001,control,40,f,14,1,alice e filo,2023_Mar_20_1123,CPO_EEG,2020.1.3,143.73294854711418,
stimoli/01.full/M02-Joy-Face Forward.mp4,happy,full,maschio,3,6,720,576,43,,,,,,,,,,,,,,,,,0,0,0,0,,,,,,,,,0,23,23,42,,,0.0013714746119148913,0.0053559996567855706,755.9867249853423,None,0.0061625909447684535,0.012588571728883835,115.0,86.0,1,0,0,3.086734543327111,click_1,0.0061625909447684535,None,762.0091907401729,None,762.0091907401729,None,0.005434516256173083,0.01110772554511641,765.0961847603385,None,0.006124423152868985,0.012489463764723041,81.0,60.0,1,0,0,3.532599463983388,click_2,0.006124423152868985,None,765.597903273193,None,765.597903273193,None,765.597903273193,None,0.005339257146260934,0.010885454286835738,,,06_control,001,control,40,f,14,1,alice e filo,2023_Mar_20_1123,CPO_EEG,2020.1.3,143.73294854711418,
stimoli/01.full/F03-Joy-Face Forward.mp4,happy,full,femmina,2,6,720,576,42,,,,,,,,,,,,,,,,,0,0,0,0,,,,,,,,,0,24,24,41,,,0.004123468638681516,0.007702901908487547,770.7234281605179,None,0.006158100617540185,0.012552328364108689,162.0,114.0,1,0,0,1.449233308487237,click_1,0.006158100617540185,None,776.7498777989176,None,776.7498777989176,None,0.005364274689782178,0.01098263782387221,778.1993609621104,None,0.006113838807323191,0.012450975234969519,104.0,20.0,1,0,0,3.9437618432421004,click_2,0.006113838807323191,None,778.7010951911143,None,778.7010951911143,None,778.7010951911143,None,0.0053302764890759136,0.010893793468312651,,,06_control,001,control,40,f,14,1,alice e filo,2023_Mar_20_1123,CPO_EEG,2020.1.3,143.73294854711418,
stimoli/02.subtle/JM1_Fear.mp4,fear,subtle,maschio,7,10,1646,926,3,,,,,,,,,,,,,,,,,0,0,0,0,,,,,,,,,0,25,25,2,,,0.0019151892420268268,0.00552028153106221,784.2398399903523,None,0.006196589146384213,0.012618079602361831,-77.0,-111.0,1,0,0,9.087011019265447,click_1,0.006196589146384213,None,794.6614837584821,None,794.6614837584821,None,0.005393141088461562,0.011022730043805495,803.7487064646612,None,0.0060961982317166985,0.012464125483347743,8.0,2.0,1,0,0,0.8289874437587059,click_2,0.0060961982317166985,None,804.2504756540802,None,804.2504756540802,None,804.2504756540802,None,0.005358822147172759,0.010959544705656299,,,06_control,001,control,40,f,14,1,alice e filo,2023_Mar_20_1123,CPO_EEG,2020.1.3,143.73294854711418,
stimoli/01.full/F03-Fear-Face Forward.mp4,fear,full,femmina,2,6,720,576,30,,,,,,,,,,,,,,,,,0,0,0,0,,,,,,,,,0,26,26,29,,,0.00034498552304285113,0.0044048839390598005,806.7646708653374,None,0.006163873896184668,0.012544951395284443,-111.0,-168.0,1,0,0,2.563998727312537,click_1,0.006163873896184668,None,812.7851733844118,None,812.7851733844118,None,0.0054223282231760095,0.011093613084995013,815.3494720015187,None,0.006101330034653074,0.012475030565838097,-110.0,-163.0,1,0,0,3.2048981785947035,click_2,0.006101330034653074,None,815.8511994950304,None,815.8511994950304,None,815.8511994950304,None,0.005441572487143276,0.011144931125272706,,,06_control,001,control,40,f,14,1,alice e filo,2023_Mar_20_1123,CPO_EEG,2020.1.3,143.73294854711418,
stimoli/01.full/F01-Surprise-Face Forward.mp4,surprised,full,femmina,1,6,720,576,49,,,,,,,,,,,,,,,,,0,0,0,0,,,,,,,,,0,27,27,48,,,0.006603733646443288,0.010386835385361337,820.7144571257022,None,0.00617894857077772,0.012607495256816037,31.0,-131.0,1,0,0,2.2086860913996134,click_1,0.00617894857077772,None,826.7380181999424,None,826.7380181999424,None,0.005425535598988063,0.011119913579932472,828.9469570326883,None,0.006100688559854461,0.012427882117663103,4.0,4.0,1,0,0,1.0100448647963276,click_2,0.006100688559854461,None,829.4487656728497,None,829.4487656728497,None,829.4487656728497,None,0.005370689445044263,0.011007013892594841,,,06_control,001,control,40,f,14,1,alice e filo,2023_Mar_20_1123,CPO_EEG,2020.1.3,143.73294854711418,
stimoli/01.full/M03-Anger-Face Forward.mp4,angry,full,maschio,4,6,720,576,36,,,,,,,,,,,,,,,,,0,0,0,0,,,,,,,,,0,28,28,35,,,0.004354079080258089,0.007869044062317698,832.051299116175,None,0.0061680434864683775,0.012599476812283683,-25.0,157.0,1,0,0,2.61981447245671,click_1,0.0061680434864683775,None,838.0744297603569,None,838.0744297603569,None,0.00540917797570728,0.011069237017181877,840.6944960119463,None,0.006110631430601643,0.012471502451262495,2.0,-7.0,1,0,0,0.8986035719917709,click_2,0.006110631430601643,None,841.1961705837293,None,841.1961705837293,None,841.1961705837293,None,0.0054027632195357,0.011031389962226967,,,06_control,001,control,40,f,14,1,alice e filo,2023_Mar_20_1123,CPO_EEG,2020.1.3,143.73294854711418,
stimoli/02.subtle/JF1_Surprise.mp4,surprised,subtle,femmina,5,10,1646,926,21,,,,,,,,,,,,,,,,,0,0,0,0,,,,,,,,,0,29,29,20,,,0.004164394775216351,0.007669416887438274,843.7347835597529,None,0.0062148711976988125,0.012673567232013738,79.0,-124.0,1,0,0,5.504801764827789,click_1,0.0062148711976988125,None,854.5558712327747,None,854.5558712327747,None,0.005414309778643656,0.011063784474572458,860.0608587047582,None,0.006040389864210738,0.012320114235080837,22.0,-100.0,1,0,0,4.424688210834574,click_2,0.006040389864210738,None,860.5625980655659,None,860.5625980655659,None,860.5625980655659,None,0.005329955750312365,0.010924584291387873,,,06_control,001,control,40,f,14,1,alice e filo,2023_Mar_20_1123,CPO_EEG,2020.1.3,143.73294854711418,
stimoli/02.subtle/JF1_Disgust.mp4,disgusted,subtle,femmina,5,10,1646,926,9,,,,,,,,,,,,,,,,,0,0,0,0,,,,,,,,,0,30,30,8,,,0.006079519870581862,0.010019783106145042,866.6259591662356,None,0.0062074942306935554,0.012636361654585926,-128.0,82.0,1,0,0,4.961090983035319,click_1,0.0062074942306935554,None,877.452877210043,None,877.452877210043,None,0.005421366009613848,0.011077576197749295,882.4141821251569,None,0.006120253562585276,0.012481445321100182,-53.0,-83.0,1,0,0,1.922935379041519,click_2,0.006120253562585276,None,882.9159169956365,None,882.9159169956365,None,882.9159169956365,None,0.005385443381783261,0.010988731842189736,,,06_control,001,control,40,f,14,1,alice e filo,2023_Mar_20_1123,CPO_EEG,2020.1.3,143.73294854711418,
stimoli/01.full/M03-Disgust-Face Forward.mp4,disgusted,full,maschio,4,6,720,576,40,,,,,,,,,,,,,,,,,0,0,0,0,,,,,,,,,0,31,31,39,,,0.006618680024075729,0.010236922560579842,886.4426783911276,None,0.006205890541423287,0.012633795751753496,-159.0,103.0,1,0,0,1.233186285766351,click_1,0.006205890541423287,None,892.4688172346505,None,892.4688172346505,None,0.0054451006017188774,0.011113178086816333,893.7022687705348,None,0.0060766332298953785,0.012418580723533523,1.0,0.0,1,0,0,0.7382860159623306,click_2,0.0060766332298953785,None,894.2040049239658,None,894.2040049239658,None,894.2040049239658,None,0.005241752870460914,0.010711935165090836,,,06_control,001,control,40,f,14,1,alice e filo,2023_Mar_20_1123,CPO_EEG,2020.1.3,143.73294854711418,
stimoli/02.subtle/JF1_Fear.mp4,fear,subtle,femmina,5,10,1646,926,1,,,,,,,,,,,,,,,,,0,0,0,0,,,,,,,,,0,32,32,0,,,0.002653976571309613,0.00641526814433746,896.5569928526793,None,0.006203003902555793,0.01264309714679257,-76.0,-121.0,1,0,0,2.870811646115726,click_1,0.006203003902555793,None,907.3819483022062,None,907.3819483022062,None,0.0053841604303670465,0.010985524463649199,910.2529854269596,None,0.006100367822000408,0.012442315315638552,-81.0,-49.0,1,0,0,1.0520720941485706,click_2,0.006100367822000408,None,910.7547251085052,None,910.7547251085052,None,910.7547251085052,None,0.005276392547784781,0.010788270748889772,,,06_control,001,control,40,f,14,1,alice e filo,2023_Mar_20_1123,CPO_EEG,2020.1.3,143.73294854711418,
stimoli/01.full/M02-Surprise-Face Forward.mp4,surprised,full,maschio,3,6,720,576,51,,,,,,,,,,,,,,,,,0,0,0,0,,,,,,,,,0,33,33,50,,,0.00011136014654766768,0.004435225729139347,913.4044358672036,None,0.00614911995944567,0.012566761562084139,44.0,-187.0,1,0,0,1.5466926806366246,click_1,0.00614911995944567,None,919.4304085685726,None,919.4304085685726,None,0.005460175276311929,0.011160005798956263,920.9773661785894,None,0.006105820363700332,0.012460276630008593,2.0,3.0,1,0,0,0.8498119835321631,click_2,0.006105820363700332,None,921.4790612775878,None,921.4790612775878,None,921.4790612775878,None,0.0053633124771295115,0.010962110608488729,,,06_control,001,control,40,f,14,1,alice e filo,2023_Mar_20_1123,CPO_EEG,2020.1.3,143.73294854711418,
stimoli/01.full/F03-Sadness-Face Forward.mp4,sad,full,femmina,2,6,720,576,46,,,,,,,,,,,,,,,,,0,0,0,0,,,,,,,,,0,34,34,45,,,0.004394748624690692,0.008157002410371206,923.9282689270549,None,0.006151685861368605,0.01255361131461541,-35.0,-199.0,1,0,0,4.271237970730908,click_1,0.006151685861368605,None,929.9557388322319,None,929.9557388322319,None,0.005413026828136935,0.01106987849198049,934.2272593729185,None,0.006124743891632534,0.01250934950530791,-1.0,4.0,1,0,0,2.2852445881917447,click_2,0.006124743891632534,None,934.7289875079059,None,934.7289875079059,None,934.7289875079059,None,0.005340219359823095,0.0109123962583908,,,06_control,001,control,40,f,14,1,alice e filo,2023_Mar_20_1123,CPO_EEG,2020.1.3,143.73294854711418,
stimoli/02.subtle/JF2_Sadness.mp4,sad,subtle,femmina,6,8,1646,926,18,,,,,,,,,,,,,,,,,0,0,0,0,,,,,,,,,0,35,35,17,,,0.006427263736441091,0.010101956116159272,938.6792240840687,None,0.006184401112477644,0.012634437227461603,-28.0,-132.0,1,0,0,1.7627271945839311,click_1,0.006184401112477644,None,947.0618751226821,None,947.0618751226821,None,0.0054434969133581035,0.011119913579932472,948.824827475165,None,0.006104537412284117,0.012507104341239028,-100.0,-19.0,1,0,0,3.212043574147174,click_2,0.006104537412284117,None,949.3265783825318,None,949.3265783825318,None,949.3265783825318,None,0.005325144685230043,0.010883209122766857,,,06_control,001,control,40,f,14,1,alice e filo,2023_Mar_20_1123,CPO_EEG,2020.1.3,143.73294854711418,
stimoli/02.subtle/JM1_Neutral.mp4,neutral,subtle,maschio,7,10,1646,926,27,,,,,,,,,,,,,,,,,0,0,0,0,,,,,,,,,0,36,36,26,,,0.0007097926363712759,0.004160930806392571,954.1413096748611,None,0.006190174392031622,0.012647908212784387,64.0,9.0,1,0,0,7.261095922396635,click_1,0.006190174392031622,None,964.5680506072849,None,964.5680506072849,None,0.00540789502338157,0.011076613984187134,971.8293797060242,None,0.006112235118052922,0.012489784502577095,0.0,-1.0,1,0,0,1.0450476167252418,click_2,0.006112235118052922,None,972.331109123962,None,972.331109123962,None,972.331109123962,None,0.005362671001421404,0.011041332832064654,,,06_control,001,control,40,f,14,1,alice e filo,2023_Mar_20_1123,CPO_EEG,2020.1.3,143.73294854711418,
stimoli/01.full/F01-Joy-Face Forward.mp4,happy,full,femmina,1,6,720,576,41,,,,,,,,,,,,,,,,,0,0,0,0,,,,,,,,,0,37,37,40,,,0.0017241578407265479,0.006001837186886405,975.0601787407322,None,0.0062062112792773405,0.012628663947907626,112.0,78.0,1,0,0,2.0206330593382518,click_1,0.0062062112792773405,None,981.0848165315929,None,981.0848165315929,None,0.00543772363471362,0.011105801119811076,983.1056818050602,None,0.006053219372915919,0.012335509645708953,1.0,-1.0,1,0,0,1.0658067259983,click_2,0.006053219372915919,None,983.6074067326699,None,983.6074067326699,None,983.6074067326699,None,0.00514392785680684,0.010533284238590568,,,06_control,001,control,40,f,14,1,alice e filo,2023_Mar_20_1123,CPO_EEG,2020.1.3,143.73294854711418,
stimoli/01.full/M02-Anger-Face Forward.mp4,angry,full,maschio,3,6,720,576,35,,,,,,,,,,,,,,,,,0,0,0,0,,,,,,,,,0,38,38,34,,,0.005698355129425181,0.009210433471707802,986.3590736067472,None,0.006198192835654481,0.01261583443829295,-36.0,201.0,1,0,0,3.616199116559983,click_1,0.006198192835654481,None,992.3852608816696,None,992.3852608816696,None,0.005447666505460802,0.011146855551487533,996.0017307008884,None,0.006036541009962093,0.01231305800320115,2.0,-1.0,1,0,0,0.8218308223849817,click_2,0.006036541009962093,None,996.5034806460426,None,996.5034806460426,None,996.5034806460426,None,0.005389933709921024,0.01099161848105723,,,06_control,001,control,40,f,14,1,alice e filo,2023_Mar_20_1123,CPO_EEG,2020.1.3,143.73294854711418,
stimoli/01.full/M02-Disgust-Face Forward.mp4,disgusted,full,maschio,3,6,720,576,39,,,,,,,,,,,,,,,,,0,0,0,0,,,,,,,,,0,39,39,38,,,0.003135596374704619,0.00694275344540074,998.9531729302471,None,0.006193381769662665,0.012633154276954883,-123.0,82.0,1,0,0,1.658215440828826,click_1,0.006193381769662665,None,1004.9794092780448,None,1004.9794092780448,None,0.0054486287181134685,0.011135308992379578,1006.6378501975096,None,0.006105499626755773,0.0124426360544021,-18.0,136.0,1,0,0,0.8219584760081489,click_2,0.006105499626755773,None,1007.1395953315978,None,1007.1395953315978,None,1007.1395953315978,None,0.005319371404766571,0.010875190678234503,,,06_control,001,control,40,f,14,1,alice e filo,2023_Mar_20_1123,CPO_EEG,2020.1.3,143.73294854711418,
stimoli/01.full/F03-Neutral-Face Forward.mp4,neutral,full,femmina,2,6,720,576,54,,,,,,,,,,,,,,,,,0,0,0,0,,,,,,,,,0,40,40,53,,,0.004734474048746051,0.00836554609486484,1009.5537902862643,None,0.006166760535961657,0.012608136732524144,54.0,39.0,1,0,0,4.459685189484844,click_1,0.006166760535961657,None,1015.5802014361352,None,1015.5802014361352,None,0.005426497812550224,0.011120875793494633,1020.0401364803265,None,0.0061154424965934595,0.012467974335777399,0.0,0.0,1,0,0,0.5571346187653035,click_2,0.0061154424965934595,None,1020.5417979018621,None,1020.5417979018621,None,1020.5417979018621,None,0.005364274689782178,0.010960186181364406,,,06_control,001,control,40,f,14,1,alice e filo,2023_Mar_20_1123,CPO_EEG,2020.1.3,143.73294854711418,
stimoli/02.subtle/JF2_Disgust.mp4,disgusted,subtle,femmina,6,10,1646,926,10,,,,,,,,,,,,,,,,,0,0,0,0,,,,,,,,,0,41,41,9,,,0.0024715409399505006,0.006296659324107168,1022.7071949816091,None,0.006239568005184992,0.0127264889615617,-24.0,-145.0,1,0,0,2.048580222284727,click_1,0.006239568005184992,None,1033.130406836589,None,1033.130406836589,None,0.005402121744737087,0.011027220371943258,1035.1791323530733,None,0.006099726347201795,0.012438145726264338,-55.0,39.0,1,0,0,1.5535429974615909,click_2,0.006099726347201795,None,1035.6808729968325,None,1035.6808729968325,None,1035.6808729968325,None,0.005346634114175686,0.010955695853226644,,,06_control,001,control,40,f,14,1,alice e filo,2023_Mar_20_1123,CPO_EEG,2020.1.3,143.73294854711418,
stimoli/01.full/M03-Surprise-Face Forward.mp4,surprised,full,maschio,4,6,720,576,52,,,,,,,,,,,,,,,,,0,0,0,0,,,,,,,,,0,42,42,51,,,0.00019808763317996636,0.003965152484852297,1038.8515988135268,None,0.006190174391122127,0.012594345008437813,45.0,-210.0,1,0,0,1.0032131507614395,click_1,0.006190174391122127,None,1044.8781408243985,None,1044.8781408243985,None,0.005391537398281798,0.0110044479915814,1045.8816307718362,None,0.006027881091540621,0.01229060636160284,3.0,-3.0,1,0,0,0.7800123933066061,click_2,0.006027881091540621,None,1046.3833521713304,None,1046.3833521713304,None,1046.3833521713304,None,0.005366840592614608,0.010987128152919468,,,06_control,001,control,40,f,14,1,alice e filo,2023_Mar_20_1123,CPO_EEG,2020.1.3,143.73294854711418,
stimoli/01.full/F01-Disgust-Face Forward.mp4,disgusted,full,femmina,1,6,720,576,37,,,,,,,,,,,,,,,,,0,0,0,0,,,,,,,,,0,43,43,36,,,0.001137977531470824,0.004930380665427947,1048.7661722387365,None,0.006150402910861885,0.012545913608846604,-170.0,103.0,1,0,0,2.2992688462300066,click_1,0.006150402910861885,None,1054.7890427646053,None,1054.7890427646053,None,0.005413668303845043,0.01109200939663424,1057.0885835964446,None,0.006107103315116547,0.012455465564016777,-8.0,67.0,1,0,0,1.7138377811106693,click_2,0.006107103315116547,None,1057.5903309756968,None,1057.5903309756968,None,1057.5903309756968,None,0.005386084857491369,0.011014711599273141,,,06_control,001,control,40,f,14,1,alice e filo,2023_Mar_20_1123,CPO_EEG,2020.1.3,143.73294854711418,
stimoli/02.subtle/JM2_Fear.mp4,fear,subtle,maschio,8,10,1646,926,4,,,,,,,,,,,,,,,,,0,0,0,0,,,,,,,,,0,44,44,3,,,0.005994716808345402,0.009383631854689156,1060.9220212764594,None,0.006188891440615407,0.01262128697908338,-77.0,-121.0,1,0,0,3.7907186193397138,click_1,0.006188891440615407,None,1071.5486379550784,None,1071.5486379550784,None,0.005422007485321956,0.011078217673457402,1075.3395855811705,None,0.006126026842139254,0.01249619925783918,-59.0,-16.0,1,0,0,2.8499951247858917,click_2,0.006126026842139254,None,1075.8413098673045,None,1075.8413098673045,None,1075.8413098673045,None,0.005316484766808571,0.010885775025599287,,,06_control,001,control,40,f,14,1,alice e filo,2023_Mar_20_1123,CPO_EEG,2020.1.3,143.73294854711418,
stimoli/02.subtle/JM1_Disgust.mp4,disgusted,subtle,maschio,7,10,1646,926,11,,,,,,,,,,,,,,,,,0,0,0,0,,,,,,,,,0,45,45,10,,,0.00041343095836055,0.0042680572159952135,1080.2950184295905,None,0.006213588247192092,0.012643738621591183,-108.0,75.0,1,0,0,1.7140376007273517,click_1,0.006213588247192092,None,1090.718209757355,None,1090.718209757355,None,0.0054422139619418886,0.01111285734896228,1092.4325052312324,None,0.0061260268430487486,0.012473747616240871,-7.0,-65.0,1,0,0,1.7556809069947121,click_2,0.0061260268430487486,None,1092.9342179708074,None,1092.9342179708074,None,1092.9342179708074,None,0.005354652557798545,0.010936451588349883,,,06_control,001,control,40,f,14,1,alice e filo,2023_Mar_20_1123,CPO_EEG,2020.1.3,143.73294854711418,
stimoli/01.full/M02-Fear-Face Forward.mp4,fear,full,maschio,3,6,720,576,31,,,,,,,,,,,,,,,,,0,0,0,0,,,,,,,,,0,46,46,30,,,0.005463446801513783,0.009232436080310435,1096.2882345054795,None,0.006191136605593783,0.012598193861776963,-122.0,-162.0,1,0,0,1.1703851932061298,click_1,0.006191136605593783,None,1102.31481949521,None,1102.31481949521,None,0.005341823048183869,0.010917528061327175,1103.4854227900842,None,0.0060522571602632524,0.012343528090241307,1.0,2.0,1,0,0,1.4071509122422867,click_2,0.0060522571602632524,None,1103.9871887721256,None,1103.9871887721256,None,1103.9871887721256,None,0.005342464523891977,0.01091496215940424,,,06_control,001,control,40,f,14,1,alice e filo,2023_Mar_20_1123,CPO_EEG,2020.1.3,143.73294854711418,
stimoli/02.subtle/JF2_Fear.mp4,fear,subtle,femmina,6,10,1646,926,2,,,,,,,,,,,,,,,,,0,0,0,0,,,,,,,,,0,47,47,1,,,0.0035098331782137393,0.00706745628031058,1107.0283573865263,None,0.0061885707027613535,0.012612947797606466,-79.0,-127.0,1,0,0,3.323703930834199,click_1,0.0061885707027613535,None,1117.4547734116104,None,1117.4547734116104,None,0.0054210452717597946,0.011079821361818176,1120.7787194994435,None,0.006094915280300484,0.01241537334590248,3.0,9.0,1,0,0,0.7243829967937927,click_2,0.006094915280300484,None,1121.2805364787864,None,1121.2805364787864,None,1121.2805364787864,None,0.005302051567923627,0.010873586990783224,,,06_control,001,control,40,f,14,1,alice e filo,2023_Mar_20_1123,CPO_EEG,2020.1.3,143.73294854711418,
stimoli/02.subtle/JM2_Disgust.mp4,disgusted,subtle,maschio,8,10,1646,926,12,,,,,,,,,,,,,,,,,0,0,0,0,,,,,,,,,0,48,48,11,,,0.002380900453317736,0.006283316634835501,1123.6337787525354,None,0.006223531117029779,0.012665548788390879,-27.0,-133.0,1,0,0,2.152923588721933,click_1,0.006223531117029779,None,1134.2599925845434,None,1134.2599925845434,None,0.0054293844532367075,0.011094896036411228,1136.413134916409,None,0.006104216675339558,0.012514802047007834,-143.0,-30.0,1,0,0,0.9960716040604893,click_2,0.006104216675339558,None,1136.914930727061,None,1136.914930727061,None,1136.914930727061,None,0.005341823048183869,0.010949601836728107,,,06_control,001,control,40,f,14,1,alice e filo,2023_Mar_20_1123,CPO_EEG,2020.1.3,143.73294854711418,
stimoli/01.full/F01-Sadness-Face Forward.mp4,sad,full,femmina,1,6,720,576,45,,,,,,,,,,,,,,,,,0,0,0,0,,,,,,,,,0,49,49,44,,,0.006616178269723605,0.01032743475298048,1139.5081069673215,None,0.006184080374623591,0.012587930254085222,-52.0,-204.0,1,0,0,1.114631991922579,click_1,0.006184080374623591,None,1145.530106369467,None,1145.530106369467,None,0.005442855438559491,0.011117347678009537,1146.645000404129,None,0.006101971511270676,0.012445522693269595,2.0,-2.0,1,0,0,0.7381227604482774,click_2,0.006101971511270676,None,1147.146771838712,None,1147.146771838712,None,1147.146771838712,None,0.005494494216691237,0.011229926628402609,,,06_control,001,control,40,f,14,1,alice e filo,2023_Mar_20_1123,CPO_EEG,2020.1.3,143.73294854711418,
stimoli/01.full/F01-Anger-Face Forward.mp4,angry,full,femmina,1,6,720,576,33,,,,,,,,,,,,,,,,,0,0,0,0,,,,,,,,,0,50,50,32,,,0.002378526993197738,0.00597624231431837,1149.5269942510968,None,0.006201720950230083,0.012648549687583,-23.0,145.0,1,0,0,2.9124851017322726,click_1,0.006201720950230083,None,1155.5479724242514,None,1155.5479724242514,None,0.005402442482591141,0.011047426849472686,1158.4606907023253,None,0.006120574299529835,0.012464125482438249,-92.0,19.0,1,0,0,1.6371753652883854,click_2,0.006120574299529835,None,1158.9624236483787,None,1158.9624236483787,None,1158.9624236483787,None,0.005347275589883793,0.010928753882581077,,,06_control,001,control,40,f,14,1,alice e filo,2023_Mar_20_1123,CPO_EEG,2020.1.3,143.73294854711418,
stimoli/01.full/M02-Sadness-Face Forward.mp4,sad,full,maschio,3,6,720,576,47,,,,,,,,,,,,,,,,,0,0,0,0,,,,,,,,,0,51,51,46,,,0.005057392814705963,0.008833759060507873,1162.1983868815696,None,0.006171571602862969,0.012599797551047232,-82.0,-114.0,1,0,0,1.9856636641334262,click_1,0.006171571602862969,None,1167.8631036765528,None,1167.8631036765528,None,0.005427780763966439,0.011118630629425752,1169.8490232894092,None,0.006106782577262493,0.01245482408830867,-13.0,-100.0,1,0,0,1.0379054285504026,click_2,0.006106782577262493,None,1170.3507610465285,None,1170.3507610465285,None,1170.3507610465285,None,0.005467231508191617,0.01116834498134267,,,06_control,001,control,40,f,14,1,alice e filo,2023_Mar_20_1123,CPO_EEG,2020.1.3,143.73294854711418,
stimoli/02.subtle/JM2_Happiness.mp4,happy,subtle,maschio,8,10,1646,926,16,,,,,,,,,,,,,,,,,0,0,0,0,,,,,,,,,0,52,52,15,,,0.004773796497829608,0.008411283299210481,1173.0284888890028,None,0.006201720950230083,0.012631871325538668,130.0,69.0,1,0,0,1.8463124139616411,click_1,0.006201720950230083,None,1183.6535240097865,None,1183.6535240097865,None,0.005438044372567674,0.011102914480034087,1185.5001003909147,None,0.0060663696203846484,0.012400298671309429,1.0,0.0,1,0,0,0.8845802761688901,click_2,0.0060663696203846484,None,1186.0018326954923,None,1186.0018326954923,None,1186.0018326954923,None,0.0053963484651831095,0.011041974307772762,,,06_control,001,control,40,f,14,1,alice e filo,2023_Mar_20_1123,CPO_EEG,2020.1.3,143.73294854711418,
stimoli/02.subtle/JM1_Surprise.mp4,surprised,subtle,maschio,7,10,1646,926,23,,,,,,,,,,,,,,,,,0,0,0,0,,,,,,,,,0,53,53,22,,,0.002312134280145983,0.005777384911198169,1188.5282951634026,None,0.006189532916323515,0.01264053124396014,74.0,-121.0,1,0,0,4.793847416072822,click_1,0.006189532916323515,None,1198.9526600705876,None,1198.9526600705876,None,0.005393782563260174,0.011047426849472686,1203.7467483607088,None,0.006101971511270676,0.012428202855517156,-2.0,0.0,1,0,0,0.8566741676531819,click_2,0.006101971511270676,None,1204.2484906081572,None,1204.2484906081572,None,1204.2484906081572,None,0.005350162229660782,0.010934847899989109,,,06_control,001,control,40,f,14,1,alice e filo,2023_Mar_20_1123,CPO_EEG,2020.1.3,143.73294854711418,
stimoli/02.subtle/JF2_Surprise.mp4,surprised,subtle,femmina,6,10,1646,926,22,,,,,,,,,,,,,,,,,0,0,0,0,,,,,,,,,0,54,54,21,,,0.0008375745546800317,0.004448119386324834,1206.728390294219,None,0.0061885707027613535,0.012618079602361831,25.0,-138.0,1,0,0,1.5815626471385258,click_1,0.0061885707027613535,None,1217.1548249220923,None,1217.1548249220923,None,0.005450553145237791,0.011130177189443202,1218.736633254346,None,0.006104216676249052,0.012433655398126575,4.0,2.0,1,0,0,2.2156987015250706,click_2,0.006104216676249052,None,1219.2383844824508,None,1219.2383844824508,None,1219.2383844824508,None,0.005346313376321632,0.010961789870634675,,,06_control,001,control,40,f,14,1,alice e filo,2023_Mar_20_1123,CPO_EEG,2020.1.3,143.73294854711418,
stimoli/01.full/F01-Fear-Face Forward.mp4,fear,full,femmina,1,6,720,576,29,,,,,,,,,,,,,,,,,0,0,0,0,,,,,,,,,0,55,55,28,,,0.003769438311792328,0.0077799431137464126,1223.0749137536195,None,0.006214550459844759,0.01264951190114516,-112.0,-158.0,1,0,0,2.2574722273184307,click_1,0.006214550459844759,None,1229.0952498098022,None,1229.0952498098022,None,0.005432912568721804,0.01112151726920274,1231.352960666005,None,0.006131800122602726,0.012521858278887521,0.0,0.0,1,0,0,0.4317569500663012,click_2,0.006131800122602726,None,1231.854706120831,None,1231.854706120831,None,1231.854706120831,None,0.005349200016098621,0.010930357570941851,,,06_control,001,control,40,f,14,1,alice e filo,2023_Mar_20_1123,CPO_EEG,2020.1.3,143.73294854711418,
,,,,,,,,,,,,,,,,,,,,,,,,,0,0,0,0,,,,,,,,,,,,,,,,,,,,,,,,,,,,,,,,,,,,,,,,,,,,,,,,,,,,,,,,,,,06_control,001,control,40,f,14,1,alice e filo,2023_Mar_20_1123,CPO_EEG,2020.1.3,143.73294854711418,
,,,,,,,,,,,,,,,,,,,,,,,,,1,0,1,0,,,,,0,0,0,0,,,,,,,,,,,,,,,,,,,,,,,,,,,,,,,,,,,,,,,,,,,,,,,,,,,06_control,001,control,40,f,14,1,alice e filo,2023_Mar_20_1123,CPO_EEG,2020.1.3,143.73294854711418,
stimoli/02.subtle/JF1_Anger.mp4,angry,subtle,femmina,5,10,1646,926,5,,,,,,,,,,,,,,,,,1,0,1,0,,,,,,,,,0,0,0,4,,,0.004845513457439665,0.00844900205720478,1242.6836707922093,None,0.005783799664641265,0.011787689572884119,-114.0,-168.0,1,0,0,2.1735540821573522,click_1,0.005783799664641265,None,1253.5067120788553,None,1253.5067120788553,None,0.004586485651998373,0.00937157211592421,1255.6808784493742,None,0.005830306638017646,0.011935870411434735,0.0,0.0,1,0,0,1.0515823276073206,click_2,0.005830306638017646,None,1256.1826184516576,None,1256.1826184516576,None,1256.1826184516576,None,0.004432210794220737,0.009097982816456351,,,06_control,001,control,40,f,14,1,alice e filo,2023_Mar_20_1123,CPO_EEG,2020.1.3,143.73294854711418,
stimoli/02.subtle/JM1_Fear.mp4,fear,subtle,maschio,7,10,1646,926,3,,,,,,,,,,,,,,,,,1,0,1,0,,,,,,,,,0,1,1,2,,,0.0030492537716781953,0.006433357752939628,1258.834818776757,None,0.006244379071176809,0.01271494240154425,-81.0,-125.0,1,0,0,3.553656538623727,click_1,0.006244379071176809,None,1269.2600779007844,None,1269.2600779007844,None,0.0054470250288432,0.011140120058371394,1272.8139685779643,None,0.00610100929679902,0.012439749413715617,4.0,2.0,1,0,0,1.3237635880541347,click_2,0.00610100929679902,None,1273.3157724070597,None,1273.3157724070597,None,1273.3157724070597,None,0.0053322009143812465,0.010929074619525636,,,06_control,001,control,40,f,14,1,alice e filo,2023_Mar_20_1123,CPO_EEG,2020.1.3,143.73294854711418,
stimoli/02.subtle/JM2_Neutral.mp4,neutral,subtle,maschio,8,10,1646,926,28,,,,,,,,,,,,,,,,,1,0,1,0,,,,,,,,,0,2,2,27,,,0.0009090990743061411,0.004664617367780011,1276.2290907854604,None,0.006206211278367846,0.012632512800337281,56.0,33.0,1,0,0,4.382713582474025,click_1,0.006206211278367846,None,1287.2148593308384,None,1287.2148593308384,None,0.005428422239674546,0.011089764232565358,1291.5978185984268,None,0.006102612986069289,0.012443919004908821,-9.0,-3.0,1,0,0,0.49438163686590997,click_2,0.006102612986069289,None,1292.09955443112,None,1292.09955443112,None,1292.09955443112,None,0.005397631414780335,0.011037483978725504,,,06_control,001,control,40,f,14,1,alice e filo,2023_Mar_20_1123,CPO_EEG,2020.1.3,143.73294854711418,
stimoli/01.full/M02-Fear-Face Forward.mp4,fear,full,maschio,3,6,720,576,31,,,,,,,,,,,,,,,,,1,0,1,0,,,,,,,,,0,3,3,30,,,0.004431312730048376,0.008111457652375975,1294.1932897172755,None,0.0061834388980059884,0.012612627059752413,-82.0,-117.0,1,0,0,2.4525401146693184,click_1,0.0061834388980059884,None,1300.2207423026148,None,1300.2207423026148,None,0.005433554043520417,0.011109649972240732,1302.6735284231372,None,0.006135648975032382,0.012495878519985126,0.0,0.0,1,0,0,0.5223275168609689,click_2,0.006135648975032382,None,1303.175227370989,None,1303.175227370989,None,1303.175227370989,None,0.0053633124771295115,0.010953450689157762,,,06_control,001,control,40,f,14,1,alice e filo,2023_Mar_20_1123,CPO_EEG,2020.1.3,143.73294854711418,
stimoli/01.full/M02-Anger-Face Forward.mp4,angry,full,maschio,3,6,720,576,35,,,,,,,,,,,,,,,,,1,0,1,0,,,,,,,,,0,4,4,34,,,0.004254457934621314,0.00807219935086323,1305.2767992425452,None,0.0062081357045826735,0.012651115589505935,-33.0,146.0,1,0,0,3.8044449120088757,click_1,0.0062081357045826735,None,1311.301817749113,None,1311.301817749113,None,0.005406291335020796,0.011059294146434695,1315.1064740272986,None,0.006115121758739406,0.012477917205615086,-98.0,18.0,1,0,0,1.226337572630655,click_2,0.006115121758739406,None,1315.6081960682677,None,1315.6081960682677,None,1315.6081960682677,None,0.005383518955568434,0.01099418438388966,,,06_control,001,control,40,f,14,1,alice e filo,2023_Mar_20_1123,CPO_EEG,2020.1.3,143.73294854711418,
stimoli/02.subtle/JM1_Anger.mp4,angry,subtle,maschio,7,10,1646,926,7,,,,,,,,,,,,,,,,,1,0,1,0,,,,,,,,,0,5,5,6,,,0.006223082084943599,0.010174891879614734,1318.418928723091,None,0.006193061031808611,0.012607495256816037,-33.0,146.0,1,0,0,4.438537666799675,click_1,0.006193061031808611,None,1328.8440961161223,None,1328.8440961161223,None,0.005412385351519333,0.011051917177610449,1333.2828653555762,None,0.006090424952162721,0.01244295679134666,-59.0,12.0,1,0,0,1.0728036199743656,click_2,0.006090424952162721,None,1333.7845771329376,None,1333.7845771329376,None,1333.7845771329376,None,0.005359142886845802,0.010954412902719923,,,06_control,001,control,40,f,14,1,alice e filo,2023_Mar_20_1123,CPO_EEG,2020.1.3,143.73294854711418,
stimoli/01.full/F01-Surprise-Face Forward.mp4,surprised,full,femmina,1,6,720,576,49,,,,,,,,,,,,,,,,,1,0,1,0,,,,,,,,,0,6,6,48,,,0.00028468682648963295,0.004008772819361184,1336.4405111661636,None,0.006195626933731546,0.012609740421794413,23.0,-142.0,1,0,0,1.4422415463159268,click_1,0.006195626933731546,None,1342.467989410522,None,1342.467989410522,None,0.005434195520138019,0.01110099005381926,1343.9104756797396,None,0.006033333633240545,0.012333905957348179,-2.0,3.0,1,0,0,0.7451581429540965,click_2,0.006033333633240545,None,1344.4122833576876,None,1344.4122833576876,None,1344.4122833576876,None,0.0053594636237903615,0.01097365716668719,,,06_control,001,control,40,f,14,1,alice e filo,2023_Mar_20_1123,CPO_EEG,2020.1.3,143.73294854711418,
stimoli/01.full/M03-Fear-Face Forward.mp4,fear,full,maschio,4,6,720,576,32,,,,,,,,,,,,,,,,,1,0,1,0,,,,,,,,,0,7,7,31,,,0.0015902177556199604,0.005371715806177235,1346.75974946533,None,0.006151365124424046,0.012511915407230845,-75.0,-109.0,1,0,0,2.668528763119866,click_1,0.006151365124424046,None,1352.784580661053,None,1352.784580661053,None,0.005425856338661106,0.0110746895588818,1355.4534003333101,None,0.006099084870584193,0.012455144825253228,4.0,6.0,1,0,0,0.46651080950414325,click_2,0.006099084870584193,None,1355.9551198083782,None,1355.9551198083782,None,1355.9551198083782,None,0.005381594529353606,0.010997071023666649,,,06_control,001,control,40,f,14,1,alice e filo,2023_Mar_20_1123,CPO_EEG,2020.1.3,143.73294854711418,
stimoli/01.full/M03-Neutral-Face Forward.mp4,neutral,full,maschio,4,6,720,576,56,,,,,,,,,,,,,,,,,1,0,1,0,,,,,,,,,0,8,8,55,,,0.0033365064991812687,0.006901506570102356,1358.0015834822625,None,0.006170609389300807,0.012578628859046148,-63.0,14.0,1,0,0,9.956514376107407,click_1,0.006170609389300807,None,1364.027341930815,None,1364.027341930815,None,0.005416875680566591,0.011069557754126436,1373.98409878466,None,0.006117366922808287,0.012474709828893538,65.0,13.0,1,0,0,0.8637175686026239,click_2,0.006117366922808287,None,1374.4858249952204,None,1374.4858249952204,None,1374.4858249952204,None,0.0053633124771295115,0.010942545605757914,,,06_control,001,control,40,f,14,1,alice e filo,2023_Mar_20_1123,CPO_EEG,2020.1.3,143.73294854711418,
stimoli/02.subtle/JF2_Neutral.mp4,neutral,subtle,femmina,6,9,1646,926,26,,,,,,,,,,,,,,,,,1,0,1,0,,,,,,,,,0,9,9,25,,,0.00045224022505863104,0.00399863750590157,1376.9526786733768,None,0.0061593835680469056,0.012542385493361508,-64.0,15.0,1,0,0,4.034334334462983,click_1,0.0061593835680469056,None,1386.459691924978,None,1386.459691924978,None,0.005418158631982806,0.011102914480034087,1390.494334167679,None,0.006114801020885352,0.012495557782131073,3.0,-1.0,1,0,0,0.35504834800849494,click_2,0.006114801020885352,None,1390.9960283044647,None,1390.9960283044647,None,1390.9960283044647,None,0.005353690344236384,0.010951847000796988,,,06_control,001,control,40,f,14,1,alice e filo,2023_Mar_20_1123,CPO_EEG,2020.1.3,143.73294854711418,
stimoli/01.full/M02-Neutral-Face Forward.mp4,neutral,full,maschio,3,6,720,576,55,,,,,,,,,,,,,,,,,1,0,1,0,,,,,,,,,0,10,10,54,,,0.006163424864098488,0.00979866650141048,1392.9350480401,None,0.006202041688084137,0.012621286979992874,0.0,0.0,1,0,0,1.5467026235064623,click_1,0.006202041688084137,None,1398.9563081417355,None,1398.9563081417355,None,0.0053982728904884425,0.011029144797248591,1400.5032102641208,None,0.006181193733937107,0.012610061157829477,0.0,0.0,1,0,0,0.3898625061419807,click_2,0.006181193733937107,None,1401.0049332673043,None,1401.0049332673043,None,1401.0049332673043,None,0.005482306180965679,0.011175401210493874,,,06_control,001,control,40,f,14,1,alice e filo,2023_Mar_20_1123,CPO_EEG,2020.1.3,143.73294854711418,
stimoli/02.subtle/JM2_Disgust.mp4,disgusted,subtle,maschio,8,10,1646,926,12,,,,,,,,,,,,,,,,,1,0,1,0,,,,,,,,,0,11,11,11,,,0.004059064499415399,0.007399227408313891,1402.9805802915635,None,0.006219040789801511,0.012674850184339448,-32.0,-138.0,1,0,0,1.428365148379271,click_1,0.006219040789801511,None,1413.6053777456755,None,1413.6053777456755,None,0.005366519855670049,0.010955375116282084,1415.0339443173607,None,0.006119932824731222,0.012464125482438249,-75.0,55.0,1,0,0,1.8811859085790275,click_2,0.006119932824731222,None,1415.535670207183,None,1415.535670207183,None,1415.535670207183,None,0.005359784361644415,0.01098648667721136,,,06_control,001,control,40,f,14,1,alice e filo,2023_Mar_20_1123,CPO_EEG,2020.1.3,143.73294854711418,
stimoli/02.subtle/JM2_Sadness.mp4,sad,subtle,maschio,8,10,1646,926,20,,,,,,,,,,,,,,,,,1,0,1,0,,,,,,,,,0,12,12,19,,,0.006457862115894386,0.01013961072658276,1419.0006841336162,None,0.006195626933731546,0.012630909111976507,-128.0,-38.0,1,0,0,1.8882453464157152,click_1,0.006195626933731546,None,1429.6243885134827,None,1429.6243885134827,None,0.005446704291898641,0.011109329235296173,1431.512871847308,None,0.00612442315377848,0.012471502451262495,-85.0,-51.0,1,0,0,1.0031092317303774,click_2,0.00612442315377848,None,1432.0145525131084,None,1432.0145525131084,None,1432.0145525131084,None,0.005194925159230479,0.01062918482512032,,,06_control,001,control,40,f,14,1,alice e filo,2023_Mar_20_1123,CPO_EEG,2020.1.3,143.73294854711418,
stimoli/02.subtle/JF1_Disgust.mp4,disgusted,subtle,femmina,5,10,1646,926,9,,,,,,,,,,,,,,,,,1,0,1,0,,,,,,,,,0,13,13,8,,,0.004315333959311829,0.008014402408662136,1434.6035960474846,None,0.006190174392031622,0.01260268419082422,-112.0,84.0,1,0,0,1.769701636917489,click_1,0.006190174392031622,None,1445.4303203656918,None,1445.4303203656918,None,0.005307183371769497,0.010877756581066933,1447.2002862905138,None,0.005968865346403618,0.012163594213234319,2.0,-2.0,1,0,0,0.6753418743655857,click_2,0.005968865346403618,None,1447.7019845968898,None,1447.7019845968898,None,1447.7019845968898,None,0.00532867280071514,0.010911434044828638,,,06_control,001,control,40,f,14,1,alice e filo,2023_Mar_20_1123,CPO_EEG,2020.1.3,143.73294854711418,
stimoli/01.full/F01-Anger-Face Forward.mp4,angry,full,femmina,1,6,720,576,33,,,,,,,,,,,,,,,,,1,0,1,0,,,,,,,,,0,14,14,32,,,0.000925520846976724,0.004603099867381388,1449.9600463401894,None,0.00617509971743857,0.012570610415423289,-35.0,141.0,1,0,0,2.536304947187091,click_1,0.00617509971743857,None,1455.987265749185,None,1455.987265749185,None,0.0054139890416990966,0.011061218572649523,1458.5238526248531,None,0.006116083971392072,0.012485614912293386,0.0,0.0,1,0,0,0.4317386680149866,click_2,0.006116083971392072,None,1459.0255214233566,None,1459.0255214233566,None,1459.0255214233566,None,0.00535465255870804,0.01093452716304455,,,06_control,001,control,40,f,14,1,alice e filo,2023_Mar_20_1123,CPO_EEG,2020.1.3,143.73294854711418,
stimoli/02.subtle/JM1_Surprise.mp4,surprised,subtle,maschio,7,10,1646,926,23,,,,,,,,,,,,,,,,,1,0,1,0,,,,,,,,,0,15,15,22,,,0.00034530625998741016,0.0038650823080388363,1461.0401252545053,None,0.006234436201339122,0.012693773711362155,79.0,-117.0,1,0,0,1.379528335897703,click_1,0.006234436201339122,None,1471.4644898409524,None,1471.4644898409524,None,0.005444779864774318,0.011102593742180034,1472.8442452591753,None,0.006113838807323191,0.01246508769600041,0.0,0.0,1,0,0,3.7696233769065657,click_2,0.006113838807323191,None,1473.3459839785073,None,1473.3459839785073,None,1473.3459839785073,None,0.005316805502843636,0.01088000174422632,,,06_control,001,control,40,f,14,1,alice e filo,2023_Mar_20_1123,CPO_EEG,2020.1.3,143.73294854711418,
stimoli/02.subtle/JM1_Sadness.mp4,sad,subtle,maschio,7,10,1646,926,19,,,,,,,,,,,,,,,,,1,0,1,0,,,,,,,,,0,16,16,18,,,0.0004934870994475204,0.0041838956294668606,1478.6985834938087,None,0.0061872877513451385,0.012592420582222985,-93.0,-22.0,1,0,0,12.396332107259695,click_1,0.0061872877513451385,None,1489.1231283348707,None,1489.1231283348707,None,0.005404366908805969,0.011076934722041187,1501.5197388424958,None,0.006095236018154537,0.012446164168977703,0.0,0.0,1,0,0,0.30625226921983995,click_2,0.006095236018154537,None,1502.0214567138746,None,1502.0214567138746,None,1502.0214567138746,None,0.005321937307599001,0.010882888384912803,,,06_control,001,control,40,f,14,1,alice e filo,2023_Mar_20_1123,CPO_EEG,2020.1.3,143.73294854711418,
stimoli/01.full/M02-Sadness-Face Forward.mp4,sad,full,maschio,3,6,720,576,47,,,,,,,,,,,,,,,,,1,0,1,0,,,,,,,,,0,17,17,46,,,0.0038124813172544236,0.007472419761143101,1503.9072112109388,None,0.006197872097800428,0.01267420870863134,-24.0,-196.0,1,0,0,2.717334784778359,click_1,0.006197872097800428,None,1509.5702867908649,None,1509.5702867908649,None,0.0053456719006135245,0.010920735438958218,1512.2878229989492,None,0.006096518969570752,0.012469578025047667,-15.0,66.0,1,0,0,1.4421171000685717,click_2,0.006096518969570752,None,1512.7896018105002,None,1512.7896018105002,None,1512.7896018105002,None,0.005364274690691673,0.01099546733439638,,,06_control,001,control,40,f,14,1,alice e filo,2023_Mar_20_1123,CPO_EEG,2020.1.3,143.73294854711418,
stimoli/02.subtle/JF1_Happiness.mp4,happy,subtle,femmina,5,10,1646,926,13,,,,,,,,,,,,,,,,,1,0,1,0,,,,,,,,,0,18,18,12,,,0.005675133716977143,0.0093001117456879,1515.8297456677947,None,0.006191778080392396,0.012610702633537585,191.0,-32.0,1,0,0,3.5327858126147476,click_1,0.006191778080392396,None,1526.650467058309,None,1526.650467058309,None,0.00542617707469617,0.011081104312324896,1530.183505612269,None,0.006112876594670524,0.012466370647416625,129.0,36.0,1,0,0,1.2889539202487867,click_2,0.006112876594670524,None,1530.6852699906212,None,1530.6852699906212,None,1530.6852699906212,None,0.00538191526538867,0.011028824059394537,,,06_control,001,control,40,f,14,1,alice e filo,2023_Mar_20_1123,CPO_EEG,2020.1.3,143.73294854711418,
stimoli/02.subtle/JM1_Neutral.mp4,neutral,subtle,maschio,7,10,1646,926,27,,,,,,,,,,,,,,,,,1,0,1,0,,,,,,,,,0,19,19,26,,,0.006520085239571927,0.010417690355097875,1533.5582588045718,None,0.006183118161061429,0.012601401239408005,61.0,10.0,1,0,0,6.257182601131717,click_1,0.006183118161061429,None,1543.9797030738218,None,1543.9797030738218,None,0.0053248239473759895,0.010875190679143998,1550.2371339259707,None,0.0061154424965934595,0.012481445321100182,1.0,-1.0,1,0,0,0.8218731597671649,click_2,0.0061154424965934595,None,1550.738919152277,None,1550.738919152277,None,1550.738919152277,None,0.005406291335020796,0.011025937419617549,,,06_control,001,control,40,f,14,1,alice e filo,2023_Mar_20_1123,CPO_EEG,2020.1.3,143.73294854711418,
stimoli/01.full/M02-Disgust-Face Forward.mp4,disgusted,full,maschio,3,6,720,576,39,,,,,,,,,,,,,,,,,1,0,1,0,,,,,,,,,0,20,20,38,,,0.005446511850095703,0.009163220875961997,1553.152305527081,None,0.006183118161061429,0.012582156974531244,-155.0,109.0,1,0,0,1.5188128726167633,click_1,0.006183118161061429,None,1559.1745583120464,None,1559.1745583120464,None,0.005442855438559491,0.011109008496532624,1560.693622643058,None,0.00610902774042188,0.012443277528291219,-9.0,64.0,1,0,0,1.0239931079868256,click_2,0.00610902774042188,None,1561.1953812481315,None,1561.1953812481315,None,1561.1953812481315,None,0.005385764119637315,0.01099033553055051,,,06_control,001,control,40,f,14,1,alice e filo,2023_Mar_20_1123,CPO_EEG,2020.1.3,143.73294854711418,
stimoli/02.subtle/JM1_Happiness.mp4,happy,subtle,maschio,7,10,1646,926,15,,,,,,,,,,,,,,,,,1,0,1,0,,,,,,,,,0,21,21,14,,,0.006270166387366771,0.009708795785627444,1563.8099320934034,None,0.006170930127154861,0.012580874024024524,130.0,74.0,1,0,0,1.7181866642376917,click_1,0.006170930127154861,None,1574.2330910266555,None,1574.2330910266555,None,0.005426818551313772,0.011085594641372154,1575.9515358847802,None,0.006044559454494447,0.012318510545810568,-2.0,-1.0,1,0,0,0.5074767176474779,click_2,0.006044559454494447,None,1576.4524583265438,None,1576.4524583265438,None,1576.4524583265438,None,0.005391858136135852,0.01101888118955685,,,06_control,001,control,40,f,14,1,alice e filo,2023_Mar_20_1123,CPO_EEG,2020.1.3,143.73294854711418,
stimoli/01.full/M03-Joy-Face Forward.mp4,happy,full,maschio,4,6,720,576,44,,,,,,,,,,,,,,,,,1,0,1,0,,,,,,,,,0,22,22,43,,,0.0009328978148914757,0.005078753946690995,1578.5406111721932,None,0.006177665620271,0.01260268419082422,196.0,112.0,1,0,0,1.3933774711240403,click_1,0.006177665620271,None,1584.5611249170888,None,1584.5611249170888,None,0.005414951253442268,0.011061218571740028,1585.9547445452126,None,0.006118649874224502,0.0124609181057167,2.0,3.0,1,0,0,3.2817918463333626,click_2,0.006118649874224502,None,1586.4564357953586,None,1586.4564357953586,None,1586.4564357953586,None,0.005284731728352199,0.010811684604050242,,,06_control,001,control,40,f,14,1,alice e filo,2023_Mar_20_1123,CPO_EEG,2020.1.3,143.73294854711418,
stimoli/02.subtle/JF2_Surprise.mp4,surprised,subtle,femmina,6,10,1646,926,22,,,,,,,,,,,,,,,,,1,0,1,0,,,,,,,,,0,23,23,21,,,0.0011620328623394016,0.004766483676576172,1591.340619318932,None,0.006174458241730463,0.012569648201861128,37.0,-145.0,1,0,0,2.020534592849799,click_1,0.006174458241730463,None,1601.7626614433457,None,1601.7626614433457,None,0.005446062816190533,0.011107725546025904,1603.783476681724,None,0.006111272904490761,0.012467332859159796,0.0,0.0,1,0,0,1.2261486580973724,click_2,0.006111272904490761,None,1604.285161196377,None,1604.285161196377,None,1604.285161196377,None,0.005349200016098621,0.01094735667174973,,,06_control,001,control,40,f,14,1,alice e filo,2023_Mar_20_1123,CPO_EEG,2020.1.3,143.73294854711418,
stimoli/02.subtle/JM2_Happiness.mp4,happy,subtle,maschio,8,10,1646,926,16,,,,,,,,,,,,,,,,,1,0,1,0,,,,,,,,,0,24,24,15,,,0.006242967825528467,0.00977140379291086,1607.0950352362488,None,0.006181835210554709,0.012578308121192094,27.0,147.0,1,0,0,1.184349473284783,click_1,0.006181835210554709,None,1617.7183037335153,None,1617.7183037335153,None,0.005428101500910998,0.01108270800068567,1618.9029107592114,None,0.006098764132730139,0.012462201056223421,60.0,15.0,1,0,0,1.7974082465525498,click_2,0.006098764132730139,None,1619.404652685922,None,1619.404652685922,None,1619.404652685922,None,0.0053059004194437875,0.010828683704858122,,,06_control,001,control,40,f,14,1,alice e filo,2023_Mar_20_1123,CPO_EEG,2020.1.3,143.73294854711418,
stimoli/02.subtle/JM2_Surprise.mp4,surprised,subtle,maschio,8,10,1646,926,24,,,,,,,,,,,,,,,,,1,0,1,0,,,,,,,,,0,25,25,23,,,0.0006336494961942662,0.004231364817314898,1622.7847522557486,None,0.006176703406708839,0.01262224919264554,30.0,-140.0,1,0,0,2.243465930594539,click_1,0.006176703406708839,None,1633.7666113287132,None,1633.7666113287132,None,0.005428742976619105,0.01113883710695518,1636.0103540559849,None,0.006118970611169061,0.012484652698731225,113.0,-75.0,1,0,0,3.1496235180311487,click_2,0.006118970611169061,None,1636.512073531053,None,1636.512073531053,None,1636.512073531053,None,0.005349200016098621,0.010971732740472362,,,06_control,001,control,40,f,14,1,alice e filo,2023_Mar_20_1123,CPO_EEG,2020.1.3,143.73294854711418,
stimoli/02.subtle/JF1_Surprise.mp4,surprised,subtle,femmina,5,10,1646,926,21,,,,,,,,,,,,,,,,,1,0,1,0,,,,,,,,,0,26,26,20,,,0.0056046355593935004,0.009870126872556284,1641.2537869505923,None,0.006177986357215559,0.012673567232923233,30.0,-133.0,1,0,0,1.1564927583831377,click_1,0.006177986357215559,None,1652.0775928760295,None,1652.0775928760295,None,0.005446704291898641,0.011117026941064978,1653.2342678134537,None,0.006101971510361182,0.012473747614421882,0.0,0.0,1,0,0,0.50835970866774,click_2,0.006101971510361182,None,1653.735975100487,None,1653.735975100487,None,1653.735975100487,None,0.005373255347876693,0.010962752085106331,,,06_control,001,control,40,f,14,1,alice e filo,2023_Mar_20_1123,CPO_EEG,2020.1.3,143.73294854711418,
stimoli/01.full/F03-Joy-Face Forward.mp4,happy,full,femmina,2,6,720,576,42,,,,,,,,,,,,,,,,,1,0,1,0,,,,,,,,,0,27,27,41,,,0.003910947806616605,0.0077671777517025475,1655.8239733505416,None,0.006230266610145918,0.01268351010276092,128.0,84.0,1,0,0,1.929940932936006,click_1,0.006230266610145918,None,1661.8456468831346,None,1661.8456468831346,None,0.005449270192912081,0.011130177188533708,1663.7758181057743,None,0.006104537412284117,0.012462521794077475,0.0,0.0,1,0,0,0.33415196297937655,click_2,0.006104537412284117,None,1664.2775488066627,None,1664.2775488066627,None,1664.2775488066627,None,0.005392499612753454,0.010997391761520703,,,06_control,001,control,40,f,14,1,alice e filo,2023_Mar_20_1123,CPO_EEG,2020.1.3,143.73294854711418,
stimoli/01.full/F01-Neutral-Face Forward.mp4,neutral,full,femmina,1,6,720,576,53,,,,,,,,,,,,,,,,,1,0,1,0,,,,,,,,,0,28,28,52,,,0.005031605497606506,0.008629320818727138,1666.189998627242,None,0.006195306194967998,0.012610061157829477,-23.0,99.0,1,0,0,8.633419205520113,click_1,0.006195306194967998,None,1672.2108180352116,None,1672.2108180352116,None,0.005407253548582958,0.011050954964957782,1680.8444777940422,None,0.006101971511270676,0.012445843431123649,0.0,0.0,1,0,0,0.5013204773085818,click_2,0.006101971511270676,None,1681.3461889299288,None,1681.3461889299288,None,1681.3461889299288,None,0.005383518955568434,0.01101631528854341,,,06_control,001,control,40,f,14,1,alice e filo,2023_Mar_20_1123,CPO_EEG,2020.1.3,143.73294854711418,
stimoli/01.full/M03-Disgust-Face Forward.mp4,disgusted,full,maschio,4,6,720,576,40,,,,,,,,,,,,,,,,,1,0,1,0,,,,,,,,,0,29,29,39,,,0.004114295538784063,0.008155911902576918,1683.427295167252,None,0.0061734960281683016,0.01257028967665974,-172.0,111.0,1,0,0,1.9717949639043582,click_1,0.0061734960281683016,None,1689.4489802464032,None,1689.4489802464032,None,0.0053908959234831855,0.011007976106157003,1691.4209901045988,None,0.0061048581501381705,0.012477596468670527,-12.0,63.0,1,0,0,1.4978911493053602,click_2,0.0061048581501381705,None,1691.9227150322085,None,1691.9227150322085,None,1691.9227150322085,None,0.005340219359823095,0.010905981503128714,,,06_control,001,control,40,f,14,1,alice e filo,2023_Mar_20_1123,CPO_EEG,2020.1.3,143.73294854711418,
stimoli/02.subtle/JF1_Fear.mp4,fear,subtle,femmina,5,10,1646,926,1,,,,,,,,,,,,,,,,,1,0,1,0,,,,,,,,,0,30,30,0,,,0.001334333181148395,0.004965725965121237,1695.0161600507017,None,0.006167081272906216,0.012603967140421446,-73.0,-132.0,1,0,0,3.6511989818500297,click_1,0.006167081272906216,None,1705.8382737637803,None,1705.8382737637803,None,0.005420724532996246,0.011072765130847984,1709.4896995072186,None,0.0060564267505469616,0.012335509645708953,-67.0,-19.0,1,0,0,1.3026487806191653,click_2,0.0060564267505469616,None,1709.9914074357275,None,1709.9914074357275,None,1709.9914074357275,None,0.005328352061951591,0.01092426355353382,,,06_control,001,control,40,f,14,1,alice e filo,2023_Mar_20_1123,CPO_EEG,2020.1.3,143.73294854711418,
stimoli/02.subtle/JM2_Anger.mp4,angry,subtle,maschio,8,10,1646,926,8,,,,,,,,,,,,,,,,,1,0,1,0,,,,,,,,,0,31,31,7,,,0.0002227844406661461,0.0038766288680562866,1712.877325188305,None,0.0061991550492166425,0.012615192962584842,-27.0,158.0,1,0,0,1.9508745235443712,click_1,0.0061991550492166425,None,1723.8590322315777,None,1723.8590322315777,None,0.005443496914267598,0.011124724646833783,1725.8101784199944,None,0.006116404709246126,0.012455144825253228,0.0,0.0,1,0,0,0.7592176821435714,click_2,0.006116404709246126,None,1726.3118552369415,None,1726.3118552369415,None,1726.3118552369415,None,0.005331238702638075,0.010903736338150338,,,06_control,001,control,40,f,14,1,alice e filo,2023_Mar_20_1123,CPO_EEG,2020.1.3,143.73294854711418,
stimoli/01.full/F01-Joy-Face Forward.mp4,happy,full,femmina,1,6,720,576,41,,,,,,,,,,,,,,,,,1,0,1,0,,,,,,,,,0,32,32,40,,,0.0017296103815169772,0.005423547026111919,1728.652717675087,None,0.006170288652356248,0.012561950497001817,133.0,70.0,1,0,0,1.4769675015686516,click_1,0.006170288652356248,None,1734.679358473185,None,1734.679358473185,None,0.005421686747467902,0.011102914480034087,1736.156604375119,None,0.006120253562585276,0.012475992779400258,138.0,24.0,1,0,0,4.264709674605001,click_2,0.006120253562585276,None,1736.6583251331376,None,1736.6583251331376,None,1736.6583251331376,None,0.005342464523891977,0.010952488476505096,,,06_control,001,control,40,f,14,1,alice e filo,2023_Mar_20_1123,CPO_EEG,2020.1.3,143.73294854711418,
stimoli/01.full/M03-Surprise-Face Forward.mp4,surprised,full,maschio,4,6,720,576,52,,,,,,,,,,,,,,,,,1,0,1,0,,,,,,,,,0,33,33,51,,,0.0030289189990071463,0.007078233069478301,1742.503989015373,None,0.006175420454383129,0.012601080500644457,19.0,-147.0,1,0,0,1.3586226494726361,click_1,0.006175420454383129,None,1748.5302689835053,None,1748.5302689835053,None,0.0052372625414136564,0.010691728686651913,1749.8890394930804,None,0.006092670116231602,0.0124532203990384,-4.0,5.0,1,0,0,0.6128397093862077,click_2,0.006092670116231602,None,1750.3907753257727,None,1750.3907753257727,None,1750.3907753257727,None,0.005387367807998089,0.011017277501196077,,,06_control,001,control,40,f,14,1,alice e filo,2023_Mar_20_1123,CPO_EEG,2020.1.3,143.73294854711418,
stimoli/01.full/F01-Disgust-Face Forward.mp4,disgusted,full,femmina,1,6,720,576,37,,,,,,,,,,,,,,,,,1,0,1,0,,,,,,,,,0,34,34,36,,,0.002568660331235151,0.006253616319554567,1752.5844650030213,None,0.006173816766022355,0.012597552386068855,-175.0,117.0,1,0,0,2.299289052707536,click_1,0.006173816766022355,None,1758.6067469751224,None,1758.6067469751224,None,0.005404046170951915,0.011039087667995773,1760.9062380926107,None,0.0061119143801988685,0.012464125482438249,0.0,0.0,1,0,0,1.0658176310826093,click_2,0.0061119143801988685,None,1761.4079601335807,None,1761.4079601335807,None,1761.4079601335807,None,0.005369406494537543,0.010994825858688273,,,06_control,001,control,40,f,14,1,alice e filo,2023_Mar_20_1123,CPO_EEG,2020.1.3,143.73294854711418,
stimoli/01.full/F01-Sadness-Face Forward.mp4,sad,full,femmina,1,6,720,576,45,,,,,,,,,,,,,,,,,1,0,1,0,,,,,,,,,0,35,35,44,,,0.004022821131911769,0.007914973705737793,1764.060098877033,None,0.006140460041024198,0.012541102542854787,-34.0,-196.0,1,0,0,1.6092965194820863,click_1,0.006140460041024198,None,1770.0860372594625,None,1770.0860372594625,None,0.005524322826204298,0.01126328335431026,1771.6957010236665,None,0.006059313389414456,0.012338396284576447,5.0,8.0,1,0,0,1.8043531810126296,click_2,0.006059313389414456,None,1772.1974602702148,None,1772.1974602702148,None,1772.1974602702148,None,0.005356256246159319,0.01094735667174973,,,06_control,001,control,40,f,14,1,alice e filo,2023_Mar_20_1123,CPO_EEG,2020.1.3,143.73294854711418,
stimoli/01.full/M03-Sadness-Face Forward.mp4,sad,full,maschio,4,6,720,576,48,,,,,,,,,,,,,,,,,1,0,1,0,,,,,,,,,0,36,36,47,,,0.001201676048367517,0.00487829285521002,1775.5840967960858,None,0.006156176191325358,0.012554894266031624,-23.0,-148.0,1,0,0,1.1634364098927108,click_1,0.006156176191325358,None,1781.6109682046254,None,1781.6109682046254,None,0.005457288637444435,0.011152949568895565,1782.7747041835746,None,0.006098443396695075,0.01241922219924163,0.0,9.0,1,0,0,0.41768393989059405,click_2,0.006098443396695075,None,1783.276430073397,None,1783.276430073397,None,1783.276430073397,None,0.005399235104960098,0.011015673811925808,,,06_control,001,control,40,f,14,1,alice e filo,2023_Mar_20_1123,CPO_EEG,2020.1.3,143.73294854711418,
stimoli/02.subtle/JF1_Sadness.mp4,sad,subtle,femmina,5,10,1646,926,17,,,,,,,,,,,,,,,,,1,0,1,0,,,,,,,,,0,37,37,16,,,0.0038262088937699446,0.008019213475563447,1785.2811086749298,None,0.006185684062984365,0.01264566304780601,-31.0,-142.0,1,0,0,1.0380860039031177,click_1,0.006185684062984365,None,1796.1031559952935,None,1796.1031559952935,None,0.00540789502338157,0.011042936520425428,1797.141445026191,None,0.006096518969570752,0.012462521794077475,0.0,0.0,1,0,0,0.36899113865729305,click_2,0.006096518969570752,None,1797.6432231962672,None,1797.6432231962672,None,1797.6432231962672,None,0.005280562137158995,0.010832211820343218,,,06_control,001,control,40,f,14,1,alice e filo,2023_Mar_20_1123,CPO_EEG,2020.1.3,143.73294854711418,
stimoli/01.full/M03-Anger-Face Forward.mp4,angry,full,maschio,4,6,720,576,36,,,,,,,,,,,,,,,,,1,0,1,0,,,,,,,,,0,38,38,35,,,0.0051733715836235206,0.008985981196019566,1799.5905833963043,None,0.006189532916323515,0.012615513700438896,-31.0,141.0,1,0,0,1.7070711768383262,click_1,0.006189532916323515,None,1805.615543207865,None,1805.615543207865,None,0.0052985234524385305,0.010823231164067693,1807.3228013748103,None,0.006059313389414456,0.012339999973846716,0.0,-3.0,1,0,0,0.403744356619427,click_2,0.006059313389414456,None,1807.8245426600442,None,1807.8245426600442,None,1807.8245426600442,None,0.0053331631288529024,0.01088256764705875,,,06_control,001,control,40,f,14,1,alice e filo,2023_Mar_20_1123,CPO_EEG,2020.1.3,143.73294854711418,
stimoli/01.full/F03-Neutral-Face Forward.mp4,neutral,full,femmina,2,6,720,576,54,,,,,,,,,,,,,,,,,1,0,1,0,,,,,,,,,0,39,39,53,,,0.00016639874411339406,0.003724984059772396,1809.8047396699994,None,0.006183118161061429,0.012640851982723689,58.0,31.0,1,0,0,2.9613235179031108,click_1,0.006183118161061429,None,1815.831405164904,None,1815.831405164904,None,0.005395065514676389,0.01104646463682002,1818.7929458222625,None,0.006095556756918086,0.012417618509971362,64.0,9.0,1,0,0,1.2260210044732958,click_2,0.006095556756918086,None,1819.2946136585524,None,1819.2946136585524,None,1819.2946136585524,None,0.005377745675104961,0.011007013892594841,,,06_control,001,control,40,f,14,1,alice e filo,2023_Mar_20_1123,CPO_EEG,2020.1.3,143.73294854711418,
stimoli/02.subtle/JF2_Sadness.mp4,sad,subtle,femmina,6,8,1646,926,18,,,,,,,,,,,,,,,,,1,0,1,0,,,,,,,,,0,40,40,17,,,0.002607405451271916,0.006342075790598756,1822.108252197374,None,0.006179269307722279,0.012597552386068855,-20.0,-125.0,1,0,0,2.940450546729153,click_1,0.006179269307722279,None,1830.4941648181475,None,1830.4941648181475,None,0.005426497813459719,0.011086556854934315,1833.4348648988453,None,0.006117046184044739,0.012472464663915162,-62.0,-14.0,1,0,0,1.1007857433360186,click_2,0.006117046184044739,None,1833.9366145232616,None,1833.9366145232616,None,1833.9366145232616,None,0.005317446979461238,0.010890586091591103,,,06_control,001,control,40,f,14,1,alice e filo,2023_Mar_20_1123,CPO_EEG,2020.1.3,143.73294854711418,
stimoli/02.subtle/JM1_Disgust.mp4,disgusted,subtle,maschio,7,10,1646,926,11,,,,,,,,,,,,,,,,,1,0,1,0,,,,,,,,,0,41,41,10,,,0.0049040160220101825,0.008910351233680558,1836.643467598431,None,0.006198192834744987,0.012617758863598283,-17.0,-133.0,1,0,0,1.1495821428625277,click_1,0.006198192834744987,None,1847.0677455856858,None,1847.0677455856858,None,0.005408215760326129,0.011044860946640256,1848.2175435850522,None,0.006120253562585276,0.012482407534662343,-93.0,64.0,1,0,0,2.877572797846369,click_2,0.006120253562585276,None,1848.7193361883265,None,1848.7193361883265,None,1848.7193361883265,None,0.005297561238876369,0.010831249607690552,,,06_control,001,control,40,f,14,1,alice e filo,2023_Mar_20_1123,CPO_EEG,2020.1.3,143.73294854711418,
stimoli/02.subtle/JM2_Fear.mp4,fear,subtle,maschio,8,10,1646,926,4,,,,,,,,,,,,,,,,,1,0,1,0,,,,,,,,,0,42,42,3,,,0.004379481509204197,0.007934217972433544,1853.1825754727988,None,0.006135648974122887,0.0125417440176534,40.0,-134.0,1,0,0,1.8254160289325227,click_1,0.006135648974122887,None,1863.8074168679832,None,1863.8074168679832,None,0.0054297051901812665,0.011117347678009537,1865.6331315037596,None,0.006102612986978784,0.01242467474003206,-59.0,-82.0,1,0,0,2.354845641751126,click_2,0.006102612986978784,None,1866.1348586765334,None,1866.1348586765334,None,1866.1348586765334,None,0.005356576984013373,0.010975581593811512,,,06_control,001,control,40,f,14,1,alice e filo,2023_Mar_20_1123,CPO_EEG,2020.1.3,143.73294854711418,
stimoli/02.subtle/JF2_Anger.mp4,angry,subtle,femmina,6,9,1646,926,6,,,,,,,,,,,,,,,,,1,0,1,0,,,,,,,,,0,43,43,5,,,0.0043084701710540685,0.008094458550658601,1870.0893036526895,None,0.006185363325130311,0.012618400340215885,-20.0,146.0,1,0,0,1.3933858103055172,click_1,0.006185363325130311,None,1879.5904342532513,None,1879.5904342532513,None,0.005440289536636556,0.011112215875073161,1880.9840618998196,None,0.006127309792645974,0.01248080384630157,-96.0,17.0,1,0,0,1.0450309383631975,click_2,0.006127309792645974,None,1881.4857675831636,None,1881.4857675831636,None,1881.4857675831636,None,0.005367161330468662,0.010963714297758997,,,06_control,001,control,40,f,14,1,alice e filo,2023_Mar_20_1123,CPO_EEG,2020.1.3,143.73294854711418,
stimoli/02.subtle/JF2_Disgust.mp4,disgusted,subtle,femmina,6,10,1646,926,10,,,,,,,,,,,,,,,,,1,0,1,0,,,,,,,,,0,44,44,9,,,0.0037142072706046747,0.007700336004745623,1884.124600841872,None,0.006178627832923667,0.012620004028576659,-25.0,-145.0,1,0,0,1.351551985815604,click_1,0.006178627832923667,None,1894.5455768340098,None,1894.5455768340098,None,0.00544574207833648,0.011104518169304356,1895.8973581473156,None,0.006117366923717782,0.012479200157940795,0.0,0.0,1,0,0,0.36198847140258295,click_2,0.006117366923717782,None,1896.3991658252644,None,1896.3991658252644,None,1896.3991658252644,None,0.00537934936437523,0.011005730942088121,,,06_control,001,control,40,f,14,1,alice e filo,2023_Mar_20_1123,CPO_EEG,2020.1.3,143.73294854711418,
stimoli/02.subtle/JF2_Fear.mp4,fear,subtle,femmina,6,10,1646,926,2,,,,,,,,,,,,,,,,,1,0,1,0,,,,,,,,,0,45,45,1,,,0.0037581483429676155,0.00750468597834697,1898.3543914770999,None,0.006215833411260974,0.012695698136667488,132.0,-21.0,1,0,0,2.369025457596763,click_1,0.006215833411260974,None,1908.778026705908,None,1908.778026705908,None,0.0054313088785420405,0.011163533913531865,1911.1473103573917,None,0.006041352077772899,0.012335188908764394,-54.0,-90.0,1,0,0,1.7627021770395004,click_2,0.006041352077772899,None,1911.648986853601,None,1911.648986853601,None,1911.648986853601,None,0.005281524351630651,0.01080719427591248,,,06_control,001,control,40,f,14,1,alice e filo,2023_Mar_20_1123,CPO_EEG,2020.1.3,143.73294854711418,
stimoli/01.full/M02-Surprise-Face Forward.mp4,surprised,full,maschio,3,6,720,576,51,,,,,,,,,,,,,,,,,1,0,1,0,,,,,,,,,0,46,46,50,,,0.0038829794748380664,0.007504750126827275,1914.9979572212815,None,0.006193061030899116,0.012637323867238592,40.0,-136.0,1,0,0,3.121544211132459,click_1,0.006193061030899116,None,1921.0240178047934,None,1921.0240178047934,None,0.005364274690691673,0.010960186182273901,1924.1457682502987,None,0.006122819465417706,0.012497802947109449,-4.0,0.0,1,0,0,0.473532079548022,click_2,0.006122819465417706,None,1924.6475355152907,None,1924.6475355152907,None,1924.6475355152907,None,0.005373255347876693,0.010979109710206103,,,06_control,001,control,40,f,14,1,alice e filo,2023_Mar_20_1123,CPO_EEG,2020.1.3,143.73294854711418,
stimoli/02.subtle/JF2_Happiness.mp4,happy,subtle,femmina,6,9,1646,926,14,,,,,,,,,,,,,,,,,1,0,1,0,,,,,,,,,0,47,47,13,,,0.005074776799119718,0.008729904177016579,1926.7129057172142,None,0.0061924195561005035,0.012632512801246776,160.0,102.0,1,0,0,1.400428249041397,click_1,0.0061924195561005035,None,1936.2162741050452,None,1936.2162741050452,None,0.005446704291898641,0.011102593742180034,1937.6169303986253,None,0.006041672813807963,0.012325566775871266,-7.0,-8.0,1,0,0,0.5012749325487675,click_2,0.006041672813807963,None,1938.1186392893478,None,1938.1186392893478,None,1938.1186392893478,None,0.0053841604303670465,0.011033314388441795,,,06_control,001,control,40,f,14,1,alice e filo,2023_Mar_20_1123,CPO_EEG,2020.1.3,143.73294854711418,
stimoli/01.full/F01-Fear-Face Forward.mp4,fear,full,femmina,1,6,720,576,29,,,,,,,,,,,,,,,,,1,0,1,0,,,,,,,,,0,48,48,28,,,0.006339189149912272,0.010373428545790375,1940.2043651124568,None,0.00617894857077772,0.012601401239408005,-93.0,-158.0,1,0,0,3.8602548838734947,click_1,0.00617894857077772,None,1946.2291071430864,None,1946.2291071430864,None,0.0054242526484813425,0.011063463736718404,1950.0895756382997,None,0.006109348480094923,0.012458352203793766,0.0,0.0,1,0,0,0.34111742465483985,click_2,0.006109348480094923,None,1950.591263681068,None,1950.591263681068,None,1950.591263681068,None,0.005380953053645499,0.01098135487336549,,,06_control,001,control,40,f,14,1,alice e filo,2023_Mar_20_1123,CPO_EEG,2020.1.3,143.73294854711418,
stimoli/02.subtle/JF1_Neutral.mp4,neutral,subtle,femmina,5,10,1646,926,25,,,,,,,,,,,,,,,,,1,0,1,0,,,,,,,,,0,49,49,24,,,0.0019251962603448192,0.005705411359485879,1952.520901196095,None,0.0061680434864683775,0.012557780904899118,91.0,17.0,1,0,0,1.7138676097210919,click_1,0.0061680434864683775,None,1963.3425042946783,None,1963.3425042946783,None,0.005439648061837943,0.011085594642281649,1965.0566438900096,None,0.006131479383839178,0.012508708029599802,0.0,0.0,1,0,0,0.3063286048036389,click_2,0.006131479383839178,None,1965.558346045239,None,1965.558346045239,None,1965.558346045239,None,0.005375821248890134,0.010967883887133212,,,06_control,001,control,40,f,14,1,alice e filo,2023_Mar_20_1123,CPO_EEG,2020.1.3,143.73294854711418,
stimoli/01.full/F03-Anger-Face Forward.mp4,angry,full,femmina,2,6,720,576,34,,,,,,,,,,,,,,,,,1,0,1,0,,,,,,,,,0,50,50,33,,,0.00446319406182738,0.008295689414808294,1967.4504578852093,None,0.006195306195877492,0.012621607716937433,-29.0,145.0,1,0,0,1.2400449417737036,click_1,0.006195306195877492,None,1973.4730548217785,None,1973.4730548217785,None,0.005428422240584041,0.01111927210513386,1974.713361164817,None,0.0061295549567148555,0.01248208679680829,0.0,0.0,1,0,0,0.34807999969234515,click_2,0.0061295549567148555,None,1975.2151332408748,None,1975.2151332408748,None,1975.2151332408748,None,0.005381915266298165,0.010979430446241167,,,06_control,001,control,40,f,14,1,alice e filo,2023_Mar_20_1123,CPO_EEG,2020.1.3,143.73294854711418,
stimoli/01.full/F03-Surprise-Face Forward.mp4,surprised,full,femmina,2,6,720,576,50,,,,,,,,,,,,,,,,,1,0,1,0,,,,,,,,,0,51,51,49,,,0.006495388433904736,0.010174891880524228,1977.1468892287285,None,0.006205249065715179,0.012629305423615733,50.0,-204.0,1,0,0,0.7244869158248548,click_1,0.006205249065715179,None,1983.1711074946143,None,1983.1711074946143,None,0.005430346665889374,0.011092650871432852,1983.895838491865,None,0.006109348478275933,0.012458672940738325,-1.0,3.0,1,0,0,0.31316512990542833,click_2,0.006109348478275933,None,1984.397591323659,None,1984.397591323659,None,1984.397591323659,None,0.0053876885467616376,0.011047106112528127,,,06_control,001,control,40,f,14,1,alice e filo,2023_Mar_20_1123,CPO_EEG,2020.1.3,143.73294854711418,
stimoli/01.full/F03-Sadness-Face Forward.mp4,sad,full,femmina,2,6,720,576,46,,,,,,,,,,,,,,,,,1,0,1,0,,,,,,,,,0,52,52,45,,,0.0031651683948439313,0.00731230747896916,1986.2983294053647,None,0.006189212178469461,0.012600759763699898,-39.0,-213.0,1,0,0,2.9473544267584657,click_1,0.006189212178469461,None,1992.3251892673452,None,1992.3251892673452,None,0.005396027726419561,0.011012787172148819,1995.2727688520026,None,0.006101330034653074,0.012463804744584195,-2.0,2.0,1,0,0,0.5152642301718515,click_2,0.006101330034653074,None,1995.7745120616637,None,1995.7745120616637,None,1995.7745120616637,None,0.005368765018829436,0.010971412003527803,,,06_control,001,control,40,f,14,1,alice e filo,2023_Mar_20_1123,CPO_EEG,2020.1.3,143.73294854711418,
stimoli/01.full/M02-Joy-Face Forward.mp4,happy,full,maschio,3,6,720,576,43,,,,,,,,,,,,,,,,,1,0,1,0,,,,,,,,,0,53,53,42,,,0.0022340667119351565,0.005994075333546789,1997.8777918617288,None,0.006176703406708839,0.012598514599631017,164.0,114.0,1,0,0,1.5119250294756057,click_1,0.006176703406708839,None,2003.9050157610527,None,2003.9050157610527,None,0.00545985453936737,0.011158722848449543,2005.4172172664676,None,0.0061237816780703724,0.012503255488809373,0.0,0.0,1,0,0,0.32019024880264624,click_2,0.0061237816780703724,None,2005.9189300060425,None,2005.9189300060425,None,2005.9189300060425,None,0.005383518955568434,0.011032031437935075,,,06_control,001,control,40,f,14,1,alice e filo,2023_Mar_20_1123,CPO_EEG,2020.1.3,143.73294854711418,
stimoli/01.full/F03-Disgust-Face Forward.mp4,disgusted,full,femmina,2,6,720,576,38,,,,,,,,,,,,,,,,,1,0,1,0,,,,,,,,,0,54,54,37,,,0.0006220387904249947,0.004406102742905205,2007.828743041594,None,0.006180552260047989,0.012613589274224069,-125.0,90.0,1,0,0,1.6791304286471131,click_1,0.006180552260047989,None,2013.8500656870901,None,2013.8500656870901,None,0.005437082159005513,0.01110612185766513,2015.5294257639653,None,0.006105820363700332,0.012438145725354843,-27.0,138.0,1,0,0,0.9890987654162018,click_2,0.006105820363700332,None,2016.031143956082,None,2016.031143956082,None,2016.031143956082,None,0.005404366908805969,0.011051596439756395,,,06_control,001,control,40,f,14,1,alice e filo,2023_Mar_20_1123,CPO_EEG,2020.1.3,143.73294854711418,
stimoli/01.full/F03-Fear-Face Forward.mp4,fear,full,femmina,2,6,720,576,30,,,,,,,,,,,,,,,,,1,0,1,0,,,,,,,,,0,55,55,29,,,0.000505033658555476,0.0041575951345294015,2018.6032172562036,None,0.0061959476715856,0.012650474114707322,-108.0,-187.0,1,0,0,1.045095406650944,click_1,0.0061959476715856,None,2024.6307897974602,None,2024.6307897974602,None,0.005427139289167826,0.011077896935603349,2025.6761126071742,None,0.006112555855906976,0.012464766958146356,0.0,0.0,1,0,0,0.3549033745466659,click_2,0.006112555855906976,None,2026.1777721042827,None,2026.1777721042827,None,2026.1777721042827,None,0.005498022331266839,0.011229605890548555,,,06_control,001,control,40,f,14,1,alice e filo,2023_Mar_20_1123,CPO_EEG,2020.1.3,143.73294854711418,
,,,,,,,,,,,,,,,,,,,,,,,,,1,0,1,0,,,,,,,,,,,,,,,,,,,,,,,,,,,,,,,,,,,,,,,,,,,,,,,,,,,,,,,,,,,06_control,001,control,40,f,14,1,alice e filo,2023_Mar_20_1123,CPO_EEG,2020.1.3,143.73294854711418,
