file,file_emotion,file_emotion_level,file_gender,file_id,file_duration,size_w,size_h,trigger,loop_practice_full.thisRepN,loop_practice_full.thisTrialN,loop_practice_full.thisN,loop_practice_full.thisIndex,loop_istr_practice.thisRepN,loop_istr_practice.thisTrialN,loop_istr_practice.thisN,loop_istr_practice.thisIndex,tuto.thisRepN,tuto.thisTrialN,tuto.thisN,tuto.thisIndex,loop_practice.thisRepN,loop_practice.thisTrialN,loop_practice.thisN,loop_practice.thisIndex,exp_blocks.thisRepN,exp_blocks.thisTrialN,exp_blocks.thisN,exp_blocks.thisIndex,istr_1.thisRepN,istr_1.thisTrialN,istr_1.thisN,istr_1.thisIndex,istr_2.thisRepN,istr_2.thisTrialN,istr_2.thisN,istr_2.thisIndex,exp.thisRepN,exp.thisTrialN,exp.thisN,exp.thisIndex,img_tutorial.started,img_tutorial.stopped,p_port.started,p_port.stopped,mov_target.started,mov_target.stopped,p_port_2.started,p_port_2.stopped,primary.x,primary.y,primary.leftButton,primary.midButton,primary.rightButton,primary.time,primary.clicked_name,primary.started,primary.stopped,img_primary_wheel.started,img_primary_wheel.stopped,click_1.started,click_1.stopped,p_port_4.started,p_port_4.stopped,txt_iwi.started,txt_iwi.stopped,p_port_3.started,p_port_3.stopped,secondary.x,secondary.y,secondary.leftButton,secondary.midButton,secondary.rightButton,secondary.time,secondary.clicked_name,secondary.started,secondary.stopped,img_secondary_wheel.started,img_secondary_wheel.stopped,click_2.started,click_2.stopped,primary_pos.started,primary_pos.stopped,p_port_5.started,p_port_5.stopped,kb_end_practice.keys,kb_end_practice.rt,participant,session,group,age,sex,education,practice,experimenter,date,expName,psychopyVersion,frameRate,
stimoli/03.practice/F04-Joy-Face Forward.mp4,joy,full,femmina,9,6,700,700,59,0,0,0,0,,,,,,,,,0,0,0,2,,,,,,,,,,,,,,,,,296.687719824929,None,3.367736098880414e-05,0.004709697993348527,308.23011191787054,None,0.005894178692415153,0.01208503885072787,176.0,108.0,1,0,0,12.06354211369353,click_1,0.005894178692415153,None,314.26364205525533,None,314.26364205525533,None,0.0008820259781714412,0.00238243235162372,326.3242798979545,None,0.0057992406236735405,0.011835505682938674,29.0,-139.0,1,0,0,15.668107095273626,click_2,0.0057992406236735405,None,326.8243424416146,None,326.8243424416146,None,326.8243424416146,None,0.004582365510032105,0.009396623668635584,,,06,001,moebius,40,f,13,1,alice,2022_Nov_25_1154,CPO_EEG,2020.1.3,143.7247960168008,
stimoli/03.practice/F04-Surprise-Face Forward.mp4,surprise,full,femmina,9,6,700,700,61,0,0,0,0,,,,,,,,,0,1,1,4,,,,,,,,,,,,,,,,,,,0.00038488406335090986,0.005249818623724423,344.11815652080213,None,0.006219084989879775,0.012675515151840955,35.0,-201.0,1,0,0,3.6378369259050487,click_1,0.006219084989879775,None,350.34438431700073,None,350.34438431700073,None,0.005451882756915438,0.011159392678564473,353.9824508903971,None,0.006108751558258518,0.01248211090978657,85.0,-109.0,1,0,0,2.654994736710705,click_2,0.006108751558258518,None,354.4842460538157,None,354.4842460538157,None,354.4842460538157,None,0.005380999941735354,0.010971120223985054,,,06,001,moebius,40,f,13,1,alice,2022_Nov_25_1154,CPO_EEG,2020.1.3,143.7247960168008,
stimoli/03.practice/F04-Neutral-Face Forward.mp4,neutral,full,femmina,9,6,700,700,62,0,0,0,0,,,,,,,,,0,2,2,5,,,,,,,,,,,,,,,,,,,0.0008708001937520748,0.004532009845661378,358.7492496364448,None,0.006200482259828277,0.012627725380298216,-3.0,1.0,1,0,0,8.419268964039475,click_1,0.006200482259828277,None,364.77298575736495,None,364.77298575736495,None,0.0054464302324959135,0.011117376168385817,373.1924936702608,None,0.006133769021744229,0.012532145837667485,36.0,-48.0,1,0,0,8.572688241984451,click_2,0.006133769021744229,None,373.694335981977,None,373.694335981977,None,373.694335981977,None,0.005368811946027563,0.010943536866307113,,,06,001,moebius,40,f,13,1,alice,2022_Nov_25_1154,CPO_EEG,2020.1.3,143.7247960168008,
stimoli/03.practice/F04-Disgust-Face Forward.mp4,disgust,full,femmina,9,6,700,700,58,0,0,0,0,,,,,,,,,0,3,3,1,,,,,,,,,,,,,,,,,,,0.0042061413387273205,0.008210218543808878,383.8740582368073,None,0.006219405725914839,0.012650176950046443,-164.0,111.0,1,0,0,3.8189684978810874,click_1,0.006219405725914839,None,389.9005700132975,None,389.9005700132975,None,0.005449316862723208,0.011154260891089507,393.71978932729326,None,0.006130882391516934,0.012522523736151925,-104.0,168.0,1,0,0,3.791090062229614,click_2,0.006130882391516934,None,394.2216043763883,None,394.2216043763883,None,394.2216043763883,None,0.005296004710544366,0.010820053229053883,,,06,001,moebius,40,f,13,1,alice,2022_Nov_25_1154,CPO_EEG,2020.1.3,143.7247960168008,
stimoli/03.practice/F04-Sadness-Face Forward.mp4,sadness,full,femmina,9,6,700,700,60,0,0,0,0,,,,,,,,,0,4,4,3,,,,,,,,,,,,,,,,,,,0.004683076840592548,0.008359361118436937,399.6256117251078,None,0.006218122779046098,0.012653063580273738,-47.0,-199.0,1,0,0,2.8711754551732156,click_1,0.006218122779046098,None,405.6511407642897,None,405.6511407642897,None,0.005444185075248242,0.011108074803360068,408.5225346411694,None,0.006117732186339708,0.012466074073472555,-94.0,-21.0,1,0,0,7.778037681432579,click_2,0.006117732186339708,None,409.0243506524748,None,409.0243506524748,None,409.0243506524748,None,0.0053380212207230215,0.010939688025246141,,,06,001,moebius,40,f,13,1,alice,2022_Nov_25_1154,CPO_EEG,2020.1.3,143.7247960168008,
stimoli/03.practice/F04-Anger-Face Forward.mp4,anger,full,femmina,9,6,700,700,57,0,0,0,0,,,,,,,,,0,5,5,0,,,,,,,,,,,,,,,,,,,0.003124617121557094,0.007301571418338426,418.4175324954408,None,0.006218443515990657,0.012675515151386207,-35.0,200.0,1,0,0,5.052590558409065,click_1,0.006218443515990657,None,424.4424826048439,None,424.4424826048439,None,0.005436166657091235,0.011133413003790338,429.49531339505575,None,0.0061360141789919,0.012537919098576822,42.0,206.0,1,0,0,6.007530898171808,click_2,0.0061360141789919,None,429.99712684046744,None,429.99712684046744,None,429.99712684046744,None,0.005351171426809742,0.010959573702621128,,,06,001,moebius,40,f,13,1,alice,2022_Nov_25_1154,CPO_EEG,2020.1.3,143.7247960168008,
,,,,,,,,,0,0,0,0,,,,,,,,,,,,,,,,,,,,,,,,,,,,,,,,,,,,,,,,,,,,,,,,,,,,,,,,,,,,,,,,,,,,,,,,,y,23.01308220931105,06,001,moebius,40,f,13,1,alice,2022_Nov_25_1154,CPO_EEG,2020.1.3,143.7247960168008,
stimoli/03.practice/F04-Disgust-Face Forward.mp4,disgust,full,femmina,9,6,700,700,58,1,0,1,0,,,,,,,,,0,0,0,1,,,,,,,,,,,,,,,,,,,0.003912346503966546,0.009391491881615366,460.62045363718653,None,0.006017983066612942,0.012246369420608971,-169.0,129.0,1,0,0,3.0853785110243734,click_1,0.006017983066612942,None,466.64332986296176,None,466.64332986296176,None,0.004880009185853851,0.0100220602716945,469.7291769703338,None,0.0059333085723665135,0.012103000107344997,-107.0,162.0,1,0,0,1.4762135234145717,click_2,0.0059333085723665135,None,470.2307219591112,None,470.2307219591112,None,470.2307219591112,None,0.004702641780113481,0.00963717620834359,,,06,001,moebius,40,f,13,1,alice,2022_Nov_25_1154,CPO_EEG,2020.1.3,143.7247960168008,
stimoli/03.practice/F04-Surprise-Face Forward.mp4,surprise,full,femmina,9,6,700,700,61,1,0,1,0,,,,,,,,,0,1,1,4,,,,,,,,,,,,,,,,,,,0.0030322449451887223,0.0049361381115886616,473.2853331588526,None,0.006228707091395336,0.012680646938861173,47.0,-194.0,1,0,0,3.7125807695247204,click_1,0.006228707091395336,None,479.510364286351,None,479.510364286351,None,0.005472409906360554,0.01115490236406913,483.2231663642119,None,0.006105223453687358,0.012467677756831108,89.0,-116.0,1,0,0,3.663779715455348,click_2,0.006105223453687358,None,483.72470205162426,None,483.72470205162426,None,483.72470205162426,None,0.005366887526179198,0.010958611492696946,,,06,001,moebius,40,f,13,1,alice,2022_Nov_25_1154,CPO_EEG,2020.1.3,143.7247960168008,
stimoli/03.practice/F04-Sadness-Face Forward.mp4,sadness,full,femmina,9,6,700,700,60,1,0,1,0,,,,,,,,,0,2,2,3,,,,,,,,,,,,,,,,,,,0.006212990992480627,0.00815761772219048,488.97027604526465,None,0.006225178986824176,0.012656270947900339,-44.0,-197.0,1,0,0,5.60733422241583,click_1,0.006225178986824176,None,494.99537754239964,None,494.99537754239964,None,0.005473372116739483,0.011171580674272263,500.60296578829684,None,0.0061459570174520195,0.012523165209586296,-202.0,-34.0,1,0,0,5.414001184159588,click_2,0.0061459570174520195,None,501.1044899291878,None,501.1044899291878,None,501.1044899291878,None,0.005359510581001814,0.01094931012721645,,,06,001,moebius,40,f,13,1,alice,2022_Nov_25_1154,CPO_EEG,2020.1.3,143.7247960168008,
stimoli/03.practice/F04-Anger-Face Forward.mp4,anger,full,femmina,9,6,700,700,57,1,0,1,0,,,,,,,,,0,3,3,0,,,,,,,,,,,,,,,,,,,0.002582892802365677,0.0067800535125570605,508.1002786560616,None,0.0061953504723533115,0.01264793179325352,-45.0,206.0,1,0,0,1.4911588923291674,click_1,0.0061953504723533115,None,514.1210675272673,None,514.1210675272673,None,0.005494220003583905,0.01123219991404767,515.6125077056995,None,0.0061353727060122765,0.012504241743499733,-80.0,127.0,1,0,0,2.355329778287796,click_2,0.0061353727060122765,None,516.1143140949034,None,516.1143140949034,None,516.1143140949034,None,0.005382603625548654,0.010990685164415481,,,06,001,moebius,40,f,13,1,alice,2022_Nov_25_1154,CPO_EEG,2020.1.3,143.7247960168008,
stimoli/03.practice/F04-Joy-Face Forward.mp4,joy,full,femmina,9,6,700,700,59,1,0,1,0,,,,,,,,,0,4,4,2,,,,,,,,,,,,,,,,,,,0.0013804508407702087,0.005028189551012474,520.052008421263,None,0.006209783624854026,0.01263093274747007,158.0,115.0,1,0,0,3.512300253189551,click_1,0.006209783624854026,None,526.0762622112488,None,526.0762622112488,None,0.005447392442420096,0.011152657207276206,529.5888264307582,None,0.006140504493032495,0.012514184581505106,192.0,44.0,1,0,0,3.6656018207581837,click_2,0.006140504493032495,None,530.0906251222809,None,530.0906251222809,None,530.0906251222809,None,0.005366887526179198,0.010958611492242198,,,06,001,moebius,40,f,13,1,alice,2022_Nov_25_1154,CPO_EEG,2020.1.3,143.7247960168008,
stimoli/03.practice/F04-Neutral-Face Forward.mp4,neutral,full,femmina,9,6,700,700,62,1,0,1,0,,,,,,,,,0,5,5,5,,,,,,,,,,,,,,,,,,,0.001911270111122576,0.005786090418496315,535.3518642180343,None,0.006210425098288397,0.01263317790471774,-4.0,10.0,1,0,0,2.083556405721538,click_1,0.006210425098288397,None,541.3736938798943,None,541.3736938798943,None,0.005446430232041166,0.011152657207276206,543.4575132897257,None,0.006147560700810573,0.012548503410471312,0.0,0.0,1,0,0,0.5085065792723071,click_2,0.006147560700810573,None,543.9592818319966,None,543.9592818319966,None,543.9592818319966,None,0.005403451511938329,0.011047134826640104,,,06,001,moebius,40,f,13,1,alice,2022_Nov_25_1154,CPO_EEG,2020.1.3,143.7247960168008,
,,,,,,,,,1,0,1,0,,,,,,,,,,,,,,,,,,,,,,,,,,,,,,,,,,,,,,,,,,,,,,,,,,,,,,,,,,,,,,,,,,,,,,,,,n,25.851284646782005,06,001,moebius,40,f,13,1,alice,2022_Nov_25_1154,CPO_EEG,2020.1.3,143.7247960168008,
,,,,,,,,,,,,,,,,,,,,,,,,,0,0,0,0,0,0,0,0,,,,,,,,,,,,,,,,,,,,,,,,,,,,,,,,,,,,,,,,,,,,,,,,,,,,,,,06,001,moebius,40,f,13,1,alice,2022_Nov_25_1154,CPO_EEG,2020.1.3,143.7247960168008,
stimoli/02.subtle/JM2_Surprise.mp4,surprised,subtle,maschio,8,10,1646,926,24,,,,,,,,,,,,,,,,,0,0,0,0,,,,,,,,,0,0,0,23,,,0.0040521877135688555,0.009051831695614965,580.2292565130401,None,0.005960571193554642,0.012133470095704979,37.0,-147.0,1,0,0,5.10043421337059,click_1,0.005960571193554642,None,591.2132013950763,None,591.2132013950763,None,0.004609628131674981,0.009480335952503083,596.3141378821497,None,0.005818805563649221,0.01190735070804294,118.0,-165.0,1,0,0,1.951006824635897,click_2,0.005818805563649221,None,596.8160193237459,None,596.8160193237459,None,596.8160193237459,None,0.004474277235203772,0.009156712601907202,,,06,001,moebius,40,f,13,1,alice,2022_Nov_25_1154,CPO_EEG,2020.1.3,143.7247960168008,
stimoli/01.full/M03-Fear-Face Forward.mp4,fear,full,maschio,4,6,720,576,32,,,,,,,,,,,,,,,,,0,0,0,0,,,,,,,,,0,1,1,31,,,0.002531574927161273,0.006705321857225499,600.4102504889629,None,0.006177709952225996,0.012567426876557874,-113.0,81.0,1,0,0,3.679611279925666,click_1,0.006177709952225996,None,606.432457657942,None,606.432457657942,None,0.0054692025391887,0.011177033197782293,610.1123652985962,None,0.006082771883484384,0.01237755073907465,-105.0,-160.0,1,0,0,5.414822911635383,click_2,0.006082771883484384,None,610.6141543680169,None,610.6141543680169,None,610.6141543680169,None,0.005364321631986968,0.010938725815321959,,,06,001,moebius,40,f,13,1,alice,2022_Nov_25_1154,CPO_EEG,2020.1.3,143.7247960168008,
stimoli/01.full/F03-Sadness-Face Forward.mp4,sad,full,femmina,2,6,720,576,46,,,,,,,,,,,,,,,,,0,0,0,0,,,,,,,,,0,2,2,45,,,0.00017159414528578054,0.003788862866713316,617.6261303563833,None,0.006219084989425028,0.012646648846384778,-21.0,-132.0,1,0,0,6.558132568184192,click_1,0.006219084989425028,None,623.6530090556803,None,623.6530090556803,None,0.005466957381941029,0.011140469211568416,630.2113834593506,None,0.006126712814420898,0.012470885124457709,-118.0,81.0,1,0,0,5.902734344680084,click_2,0.006126712814420898,None,630.7131584163558,None,630.7131584163558,None,630.7131584163558,None,0.005367849735648633,0.010944178339741484,,,06,001,moebius,40,f,13,1,alice,2022_Nov_25_1154,CPO_EEG,2020.1.3,143.7247960168008,
stimoli/02.subtle/JM1_Happiness.mp4,happy,subtle,maschio,7,10,1646,926,15,,,,,,,,,,,,,,,,,0,0,0,0,,,,,,,,,0,3,3,14,,,0.0023782627749824314,0.005858576917034952,638.2309753411196,None,0.006204972573868872,0.01263991337555126,158.0,114.0,1,0,0,4.132897901162778,click_1,0.006204972573868872,None,648.6533849591156,None,648.6533849591156,None,0.005418846874363226,0.011098452701844508,652.7865169980837,None,0.006117090712905338,0.01249943069251458,188.0,-31.0,1,0,0,5.652491386615111,click_2,0.006117090712905338,None,653.2883567439062,None,653.2883567439062,None,653.2883567439062,None,0.0053322479602684325,0.01089446414835038,,,06,001,moebius,40,f,13,1,alice,2022_Nov_25_1154,CPO_EEG,2020.1.3,143.7247960168008,
stimoli/02.subtle/JF1_Anger.mp4,angry,subtle,femmina,5,10,1646,926,5,,,,,,,,,,,,,,,,,0,0,0,0,,,,,,,,,0,4,4,4,,,0.004082657701928838,0.008004626306956197,660.5818799148892,None,0.006196312682277494,0.012622272855878691,-192.0,34.0,1,0,0,6.4953756179793345,click_1,0.006196312682277494,None,671.4051703400642,None,671.4051703400642,None,0.005424940872217121,0.011104546699698403,677.90082788562,None,0.006115166292147478,0.012470243650568591,-197.0,-38.0,1,0,0,6.620657625740023,click_2,0.006115166292147478,None,678.4026480665029,None,678.4026480665029,None,678.4026480665029,None,0.005236989154127514,0.01068534380692654,,,06,001,moebius,40,f,13,1,alice,2022_Nov_25_1154,CPO_EEG,2020.1.3,143.7247960168008,
stimoli/01.full/F01-Joy-Face Forward.mp4,happy,full,femmina,1,6,720,576,41,,,,,,,,,,,,,,,,,0,0,0,0,,,,,,,,,0,5,5,40,,,0.00024504285374860046,0.003915553870683652,686.6202660062054,None,0.006130240918537311,0.012484676803524053,180.0,119.0,1,0,0,3.205495374655584,click_1,0.006130240918537311,None,692.6469256423234,None,692.6469256423234,None,0.0055513111396976456,0.011365947125796083,695.8528957073236,None,0.00612446765671848,0.012482431645821634,204.0,45.0,1,0,0,1.5817452054670866,click_2,0.00612446765671848,None,696.3546834937979,None,696.3546834937979,None,696.3546834937979,None,0.005389659832871985,0.010989722953581804,,,06,001,moebius,40,f,13,1,alice,2022_Nov_25_1154,CPO_EEG,2020.1.3,143.7247960168008,
stimoli/02.subtle/JF2_Disgust.mp4,disgusted,subtle,femmina,6,10,1646,926,10,,,,,,,,,,,,,,,,,0,0,0,0,,,,,,,,,0,6,6,9,,,9.301364934799494e-05,0.004144239152083173,699.5614060071421,None,0.006198878576014977,0.012621952118934132,-159.0,111.0,1,0,0,13.882646924680103,click_1,0.006198878576014977,None,709.9848730941021,None,709.9848730941021,None,0.005424620135272562,0.011071510817600938,723.867759288375,None,0.00613505196861297,0.012510656477388693,-77.0,131.0,1,0,0,5.066430989325454,click_2,0.00613505196861297,None,724.3695422637979,None,724.3695422637979,None,724.3695422637979,None,0.0054560523344662215,0.01113982773904354,,,06,001,moebius,40,f,13,1,alice,2022_Nov_25_1154,CPO_EEG,2020.1.3,143.7247960168008,
stimoli/02.subtle/JF2_Neutral.mp4,neutral,subtle,femmina,6,9,1646,926,26,,,,,,,,,,,,,,,,,0,0,0,0,,,,,,,,,0,7,7,25,,,0.0019802285064542957,0.005515388627827633,731.0448130136997,None,0.006210425097378902,0.01268192988482042,55.0,-81.0,1,0,0,5.9103912923837925,click_1,0.006210425097378902,None,740.5524876019222,None,740.5524876019222,None,0.005443864338303683,0.011104546699243656,746.4630761473877,None,0.006113562608334178,0.012455489762032812,92.0,-59.0,1,0,0,14.10720239962393,click_2,0.006113562608334178,None,746.9649457217251,None,746.9649457217251,None,746.9649457217251,None,0.0053418700608744984,0.010917557191532978,,,06,001,moebius,40,f,13,1,alice,2022_Nov_25_1154,CPO_EEG,2020.1.3,143.7247960168008,
stimoli/01.full/F03-Neutral-Face Forward.mp4,neutral,full,femmina,2,6,720,576,54,,,,,,,,,,,,,,,,,0,0,0,0,,,,,,,,,0,8,8,53,,,0.003734016888301994,0.0077332830433078925,762.6797533662925,None,0.00619855783861567,0.012607839702468482,1.0,6.0,1,0,0,2.543524293561859,click_1,0.00619855783861567,None,768.706398248521,None,768.706398248521,None,0.005454769387142733,0.011136941108816245,771.2501720752502,None,0.006145957016997272,0.012508732057540328,0.0,0.0,1,0,0,0.4735988776783415,click_2,0.006145957016997272,None,771.7519951427635,None,771.7519951427635,None,771.7519951427635,None,0.005367529000068316,0.010961177385979681,,,06,001,moebius,40,f,13,1,alice,2022_Nov_25_1154,CPO_EEG,2020.1.3,143.7247960168008,
stimoli/01.full/F01-Disgust-Face Forward.mp4,disgusted,full,femmina,1,6,720,576,37,,,,,,,,,,,,,,,,,0,0,0,0,,,,,,,,,0,9,9,36,,,0.0017473736479587387,0.005261685882942402,773.8277727208283,None,0.006197274891746929,0.012604311598806817,-110.0,168.0,1,0,0,3.2683777329175427,click_1,0.006197274891746929,None,779.8509927763675,None,779.8509927763675,None,0.00546118412148644,0.01112828121677012,783.1196274193976,None,0.006141787439446489,0.012493336694205937,-163.0,116.0,1,0,0,1.3865220657244208,click_2,0.006141787439446489,None,783.621410074084,None,783.621410074084,None,783.621410074084,None,0.005401527092544711,0.011052908088458935,,,06,001,moebius,40,f,13,1,alice,2022_Nov_25_1154,CPO_EEG,2020.1.3,143.7247960168008,
stimoli/02.subtle/JM1_Disgust.mp4,disgusted,subtle,maschio,7,10,1646,926,11,,,,,,,,,,,,,,,,,0,0,0,0,,,,,,,,,0,10,10,10,,,0.0027140741194671136,0.006132165338385676,786.622624062567,None,0.006210745834323461,0.01263349863984331,-85.0,61.0,1,0,0,5.79156122447057,click_1,0.006210745834323461,None,797.046577386393,None,797.046577386393,None,0.0054268652929749805,0.011073755974393862,802.8383560703592,None,0.006118694396718638,0.012468960704609344,-88.0,124.0,1,0,0,5.659107864400539,click_2,0.006118694396718638,None,803.3402060797566,None,803.3402060797566,None,803.3402060797566,None,0.005372981523578346,0.01095797001835308,,,06,001,moebius,40,f,13,1,alice,2022_Nov_25_1154,CPO_EEG,2020.1.3,143.7247960168008,
stimoli/01.full/F03-Fear-Face Forward.mp4,fear,full,femmina,2,6,720,576,30,,,,,,,,,,,,,,,,,0,0,0,0,,,,,,,,,0,11,11,29,,,0.002274664814649441,0.006268157708291255,810.5879389522556,None,0.006199199312504788,0.012663647892622976,-116.0,-169.0,1,0,0,4.2999334150572395,click_1,0.006199199312504788,None,816.60918743918,None,816.60918743918,None,0.00541628098108049,0.011051625140680699,820.9092988631169,None,0.006130561654572375,0.01249590258794342,36.0,-195.0,1,0,0,2.3831434251214887,click_2,0.006130561654572375,None,821.4111257794707,None,821.4111257794707,None,821.4111257794707,None,0.005318777017237153,0.010895105620875256,,,06,001,moebius,40,f,13,1,alice,2022_Nov_25_1154,CPO_EEG,2020.1.3,143.7247960168008,
stimoli/02.subtle/JF2_Sadness.mp4,sad,subtle,femmina,6,8,1646,926,18,,,,,,,,,,,,,,,,,0,0,0,0,,,,,,,,,0,12,12,17,,,0.00210146698555036,0.005598459437351266,825.396113697318,None,0.006206896994626732,0.01267615662436583,-41.0,-199.0,1,0,0,4.090872731028867,click_1,0.006206896994626732,None,833.777553368986,None,833.777553368986,None,0.005436808130980353,0.011084661023232911,837.8686053918404,None,0.0060523018955791485,0.012338420859123289,-51.0,36.0,1,0,0,6.871443911807546,click_2,0.0060523018955791485,None,838.3704313459843,None,838.3704313459843,None,838.3704313459843,None,0.005350529953830119,0.010963422542772605,,,06,001,moebius,40,f,13,1,alice,2022_Nov_25_1154,CPO_EEG,2020.1.3,143.7247960168008,
stimoli/02.subtle/JF2_Anger.mp4,angry,subtle,femmina,6,9,1646,926,6,,,,,,,,,,,,,,,,,0,0,0,0,,,,,,,,,0,13,13,5,,,0.005104204154122272,0.009113092410188983,846.8482257806895,None,0.00613408975823404,0.012484035329180188,-30.0,149.0,1,0,0,2.717775421432634,click_1,0.00613408975823404,None,856.3518465775146,None,856.3518465775146,None,0.005350850689865183,0.010952196757898491,859.0699562066079,None,0.006123184710304486,0.012511618687312875,-58.0,39.0,1,0,0,2.8919572701706784,click_2,0.006123184710304486,None,859.5717779911743,None,859.5717779911743,None,859.5717779911743,None,0.005357906899007503,0.01097400685557659,,,06,001,moebius,40,f,13,1,alice,2022_Nov_25_1154,CPO_EEG,2020.1.3,143.7247960168008,
stimoli/02.subtle/JM1_Fear.mp4,fear,subtle,maschio,7,10,1646,926,3,,,,,,,,,,,,,,,,,0,0,0,0,,,,,,,,,0,14,14,2,,,0.0065635562259558355,0.0099662520824495,864.067780328704,None,0.006216519095687545,0.012670704099946306,-111.0,-169.0,1,0,0,12.119630947501719,click_1,0.006216519095687545,None,874.4924617248839,None,874.4924617248839,None,0.005429751922747528,0.011091717230556242,886.612284472943,None,0.006110034504672512,0.012437849241905496,29.0,-127.0,1,0,0,11.270089504789212,click_2,0.006110034504672512,None,887.1140931073037,None,887.1140931073037,None,887.1140931073037,None,0.005339945641935628,0.010908897301305842,,,06,001,moebius,40,f,13,1,alice,2022_Nov_25_1154,CPO_EEG,2020.1.3,143.7247960168008,
stimoli/02.subtle/JM2_Anger.mp4,angry,subtle,maschio,8,10,1646,926,8,,,,,,,,,,,,,,,,,0,0,0,0,,,,,,,,,0,15,15,7,,,0.00539671604110481,0.009187182590721932,899.9967050716809,None,0.006179634372529108,0.012567747613502434,-171.0,-106.0,1,0,0,2.3554333762476745,click_1,0.006179634372529108,None,910.982315218765,None,910.982315218765,None,0.0055497074563390925,0.011358570181982941,913.3381729296921,None,0.006143391124169284,0.012532145838122233,-194.0,-40.0,1,0,0,2.4738766356767883,click_2,0.006143391124169284,None,913.8399607161668,None,913.8399607161668,None,913.8399607161668,None,0.005446109496006102,0.011149129103614541,,,06,001,moebius,40,f,13,1,alice,2022_Nov_25_1154,CPO_EEG,2020.1.3,143.7247960168008,
stimoli/01.full/M02-Joy-Face Forward.mp4,happy,full,maschio,3,6,720,576,43,,,,,,,,,,,,,,,,,0,0,0,0,,,,,,,,,0,16,16,42,,,0.003461069939476147,0.007219783554319292,917.9147132196772,None,0.0062059347837930545,0.012643762215702736,176.0,114.0,1,0,0,1.5331022746004237,click_1,0.0062059347837930545,None,923.9396152185723,None,923.9396152185723,None,0.00543777034181403,0.01110454670015315,925.4729484236109,None,0.006148202174699691,0.01251322237203567,199.0,54.0,1,0,0,1.8047188069112963,click_2,0.006148202174699691,None,925.9747730948079,None,925.9747730948079,None,925.9747730948079,None,0.0053729815226688515,0.010971761696964677,,,06,001,moebius,40,f,13,1,alice,2022_Nov_25_1154,CPO_EEG,2020.1.3,143.7247960168008,
stimoli/01.full/F03-Joy-Face Forward.mp4,happy,full,femmina,2,6,720,576,42,,,,,,,,,,,,,,,,,0,0,0,0,,,,,,,,,0,17,17,41,,,0.0052078021135457675,0.008812562103230448,929.39859972763,None,0.006179955110383162,0.0125728794009774,122.0,172.0,1,0,0,9.653018357045767,click_1,0.006179955110383162,None,935.4259399670668,None,935.4259399670668,None,0.005432959290374129,0.011127639743790496,945.0792424968454,None,0.006144032596239413,0.0125138638441058,182.0,105.0,1,0,0,1.7561522113828687,click_2,0.006144032596239413,None,945.5810639606748,None,945.5810639606748,None,945.5810639606748,None,0.005387414676988556,0.011016985576134175,,,06,001,moebius,40,f,13,1,alice,2022_Nov_25_1154,CPO_EEG,2020.1.3,143.7247960168008,
stimoli/01.full/F03-Anger-Face Forward.mp4,angry,full,femmina,2,6,720,576,34,,,,,,,,,,,,,,,,,0,0,0,0,,,,,,,,,0,18,18,33,,,0.006416979545974755,0.010498354300580104,948.935510750774,None,0.00618604910778231,0.012579935609210224,-24.0,137.0,1,0,0,6.216451420254089,click_1,0.00618604910778231,None,954.9588642327876,None,954.9588642327876,None,0.005460221910652763,0.011157147520862054,961.1756062405098,None,0.00612703355091071,0.012486280486882606,-58.0,43.0,1,0,0,2.6898277066493392,click_2,0.00612703355091071,None,961.6774344398104,None,961.6774344398104,None,961.6774344398104,None,0.005389659832871985,0.011005118316461449,,,06,001,moebius,40,f,13,1,alice,2022_Nov_25_1154,CPO_EEG,2020.1.3,143.7247960168008,
stimoli/01.full/M03-Neutral-Face Forward.mp4,neutral,full,maschio,4,6,720,576,56,,,,,,,,,,,,,,,,,0,0,0,0,,,,,,,,,0,19,19,55,,,0.0020671481570389005,0.005633740476696403,965.9623817523902,None,0.006193426052050199,0.012597896865372604,2.0,4.0,1,0,0,5.101335483552248,click_1,0.006193426052050199,None,971.9839913888604,None,971.9839913888604,None,0.0054316763425958925,0.011085302496212535,977.0855587650608,None,0.006113241872299113,0.01245837639180536,0.0,0.0,1,0,0,0.424753561941543,click_2,0.006113241872299113,None,977.5873571358466,None,977.5873571358466,None,977.5873571358466,None,0.005397678251028992,0.011046493353205733,,,06,001,moebius,40,f,13,1,alice,2022_Nov_25_1154,CPO_EEG,2020.1.3,143.7247960168008,
stimoli/02.subtle/JF1_Sadness.mp4,sad,subtle,femmina,5,10,1646,926,17,,,,,,,,,,,,,,,,,0,0,0,0,,,,,,,,,0,20,20,16,,,0.006425639437111386,0.010000891647905519,979.6165130658514,None,0.006251479398088122,0.012712720610579709,-136.0,-23.0,1,0,0,8.9699860992705,click_1,0.006251479398088122,None,990.4433030493724,None,990.4433030493724,None,0.005447392442874843,0.011121545745481853,999.4135005141411,None,0.006136334915026964,0.01250456247908005,-174.0,-108.0,1,0,0,9.228061448024164,click_2,0.006136334915026964,None,999.9153787483697,None,999.9153787483697,None,999.9153787483697,None,0.005343473744687799,0.010951234547064814,,,06,001,moebius,40,f,13,1,alice,2022_Nov_25_1154,CPO_EEG,2020.1.3,143.7247960168008,
stimoli/01.full/F03-Disgust-Face Forward.mp4,disgusted,full,femmina,2,6,720,576,38,,,,,,,,,,,,,,,,,0,0,0,0,,,,,,,,,0,21,21,37,,,0.0039569289083374315,0.00821919917325431,1010.7443186301202,None,0.00618604910778231,0.012584746659740631,-151.0,117.0,1,0,0,2.0555461472777097,click_1,0.00618604910778231,None,1016.7691584060926,None,1016.7691584060926,None,0.005559650294344465,0.011342533345668926,1018.8250714761775,None,0.006137938598840265,0.012522202999207366,-56.0,88.0,1,0,0,1.6305247701766348,click_2,0.006137938598840265,None,1019.326921485575,None,1019.326921485575,None,1019.326921485575,None,0.005383245097618783,0.010993571793733281,,,06,001,moebius,40,f,13,1,alice,2022_Nov_25_1154,CPO_EEG,2020.1.3,143.7247960168008,
stimoli/02.subtle/JF1_Disgust.mp4,disgusted,subtle,femmina,5,10,1646,926,9,,,,,,,,,,,,,,,,,0,0,0,0,,,,,,,,,0,22,22,8,,,0.006101053877500817,0.009796582358831074,1022.5893117054152,None,0.0062245375138445524,0.012671024836890865,-106.0,170.0,1,0,0,5.840141932412735,click_1,0.0062245375138445524,None,1033.4127086151807,None,1033.4127086151807,None,0.005436808130980353,0.011098773438789067,1039.2530715351936,None,0.0060709046256306465,0.012384286210362916,214.0,47.0,1,0,0,3.7426241780322016,click_2,0.0060709046256306465,None,1039.7549629196278,None,1039.7549629196278,None,1039.7549629196278,None,0.005333210170647362,0.010868805210520804,,,06,001,moebius,40,f,13,1,alice,2022_Nov_25_1154,CPO_EEG,2020.1.3,143.7247960168008,
stimoli/02.subtle/JM2_Neutral.mp4,neutral,subtle,maschio,8,10,1646,926,28,,,,,,,,,,,,,,,,,0,0,0,0,,,,,,,,,0,23,23,27,,,0.006661060187980183,0.01061093288808479,1045.1089985252524,None,0.006195671208843123,0.012614895910701307,0.0,0.0,1,0,0,2.3693341056678037,click_1,0.006195671208843123,None,1056.09349956476,None,1056.09349956476,None,0.0053521336367339245,0.010933914764791552,1058.4629937180503,None,0.006187332054651051,0.012605594546585053,0.0,0.0,1,0,0,0.9127098981271047,click_2,0.006187332054651051,None,1058.9647908058892,None,1058.9647908058892,None,1058.9647908058892,None,0.005409224772847665,0.011046172616261174,,,06,001,moebius,40,f,13,1,alice,2022_Nov_25_1154,CPO_EEG,2020.1.3,143.7247960168008,
stimoli/02.subtle/JM1_Neutral.mp4,neutral,subtle,maschio,7,10,1646,926,27,,,,,,,,,,,,,,,,,0,0,0,0,,,,,,,,,0,24,24,26,,,0.0007579008688480826,0.004311022246838547,1061.494180552963,None,0.006206576256772678,0.012673590730628348,,,,,,,,0.006206576256772678,20.008575858402764,1071.9194713489092,None,1071.9194713489092,None,0.006075715677070548,0.012392304628519923,1091.9223647148551,None,0.006081809673560201,0.012401605992636178,-28.0,-138.0,1,0,0,2.2649003054057175,click_2,0.006081809673560201,None,1092.4242073473083,None,1092.4242073473083,None,1092.4242073473083,None,0.005333210170647362,0.010901841093073017,,,06,001,moebius,40,f,13,1,alice,2022_Nov_25_1154,CPO_EEG,2020.1.3,143.7247960168008,
stimoli/02.subtle/JM2_Happiness.mp4,happy,subtle,maschio,8,10,1646,926,16,,,,,,,,,,,,,,,,,0,0,0,0,,,,,,,,,0,25,25,15,,,0.0019702856689036707,0.0059361952044127975,1096.3120328870605,None,0.006173861112074519,0.012622272855878691,53.0,-80.0,1,0,0,3.2546319193334057,click_1,0.006173861112074519,None,1106.9349411223607,None,1106.9349411223607,None,0.005462146331410622,0.011140469211568416,1110.1898100661297,None,0.0061315238644965575,0.012489167116655153,20.0,-91.0,1,0,0,2.111497705770489,click_2,0.0061315238644965575,None,1110.691602984391,None,1110.691602984391,None,1110.691602984391,None,0.0053771511011291295,0.011012495261638833,,,06,001,moebius,40,f,13,1,alice,2022_Nov_25_1154,CPO_EEG,2020.1.3,143.7247960168008,
stimoli/01.full/F01-Neutral-Face Forward.mp4,neutral,full,femmina,1,6,720,576,53,,,,,,,,,,,,,,,,,0,0,0,0,,,,,,,,,0,26,26,52,,,0.004192670396150788,0.008234273797825153,1114.4034377203056,None,0.006227744880561659,0.012662044208809675,0.0,0.0,1,0,0,1.2751879356810605,click_1,0.006227744880561659,None,1120.4279217992557,None,1120.4279217992557,None,0.005428789712823345,0.01110839553984988,1121.703321100435,None,0.006217802042556286,0.012680646938861173,0.0,0.0,1,0,0,0.39001905817622173,click_2,0.006217802042556286,None,1122.2050931708095,None,1122.2050931708095,None,1122.2050931708095,None,0.005388376885093749,0.011001910948834848,,,06,001,moebius,40,f,13,1,alice,2022_Nov_25_1154,CPO_EEG,2020.1.3,143.7247960168008,
stimoli/01.full/M02-Fear-Face Forward.mp4,fear,full,maschio,3,6,720,576,31,,,,,,,,,,,,,,,,,0,0,0,0,,,,,,,,,0,27,27,30,,,0.004506671644776361,0.008295534511489677,1124.1879279830596,None,0.006198878576469724,0.012646328110349714,-115.0,-154.0,1,0,0,1.7699766054629436,click_1,0.006198878576469724,None,1130.2118405091755,None,1130.2118405091755,None,0.0054717684324714355,0.01119820182066178,1131.982074666225,None,0.00605903736595792,0.012385569156322163,47.0,-191.0,1,0,0,5.394587952744587,click_2,0.00605903736595792,None,1132.4838441707066,None,1132.4838441707066,None,1132.4838441707066,None,0.005349247006051883,0.010954762651635974,,,06,001,moebius,40,f,13,1,alice,2022_Nov_25_1154,CPO_EEG,2020.1.3,143.7247960168008,
stimoli/02.subtle/JF1_Happiness.mp4,happy,subtle,femmina,5,10,1646,926,13,,,,,,,,,,,,,,,,,0,0,0,0,,,,,,,,,0,28,28,12,,,0.0038151632779772626,0.007968062320287572,1139.4929142843944,None,0.006223896039955434,0.012682250622674474,186.0,114.0,1,0,0,2.8432809826863377,click_1,0.006223896039955434,None,1150.3185496157253,None,1150.3185496157253,None,0.005456373070956033,0.011136299634927127,1153.1620474164333,None,0.006140825230431801,0.012533428784990974,83.0,129.0,1,0,0,2.536658924082076,click_2,0.006140825230431801,None,1153.66378901682,None,1153.66378901682,None,1153.66378901682,None,0.00531973922807083,0.010864314896934957,,,06,001,moebius,40,f,13,1,alice,2022_Nov_25_1154,CPO_EEG,2020.1.3,143.7247960168008,
stimoli/01.full/F01-Surprise-Face Forward.mp4,surprised,full,femmina,1,6,720,576,49,,,,,,,,,,,,,,,,,0,0,0,0,,,,,,,,,0,29,29,48,,,0.00621812278041034,0.009841485499237024,1157.8795822853258,None,0.006213953201950062,0.012648252529288584,54.0,-196.0,1,0,0,1.9163348645297447,click_1,0.006213953201950062,None,1163.90238634534,None,1163.90238634534,None,0.0054762587478762725,0.011185693090737914,1165.818989987241,None,0.006014775698531594,0.012271066147150123,106.0,-155.0,1,0,0,1.7768095805340636,click_2,0.006014775698531594,None,1166.3207816225554,None,1166.3207816225554,None,1166.3207816225554,None,0.005312683019838005,0.010850523217413865,,,06,001,moebius,40,f,13,1,alice,2022_Nov_25_1154,CPO_EEG,2020.1.3,143.7247960168008,
stimoli/02.subtle/JF1_Fear.mp4,fear,subtle,femmina,5,10,1646,926,1,,,,,,,,,,,,,,,,,0,0,0,0,,,,,,,,,0,30,30,0,,,0.005360793526961061,0.009169542070594616,1169.7033204589611,None,0.006189897948388534,0.012609122651156213,39.0,-196.0,1,0,0,5.520007235820231,click_1,0.006189897948388534,None,1180.5306319603874,None,1180.5306319603874,None,0.005421733505500015,0.011070227870732197,1186.0508813524316,None,0.005995210760374903,0.012216220169648295,110.0,-157.0,1,0,0,2.25088058266374,click_2,0.005995210760374903,None,1186.552712438362,None,1186.552712438362,None,1186.552712438362,None,0.005347322586203518,0.010953158968732168,,,06,001,moebius,40,f,13,1,alice,2022_Nov_25_1154,CPO_EEG,2020.1.3,143.7247960168008,
stimoli/01.full/F03-Surprise-Face Forward.mp4,surprised,full,femmina,2,6,720,576,50,,,,,,,,,,,,,,,,,0,0,0,0,,,,,,,,,0,31,31,49,,,0.005705906237380987,0.009759056160874024,1190.4026503116597,None,0.006192143106090953,0.012621631382899068,34.0,-190.0,1,0,0,2.097556884261394,click_1,0.006192143106090953,None,1196.4266295510138,None,1196.4266295510138,None,0.005449637599667767,0.011106150383056956,1198.5244276292874,None,0.00612863723472401,0.012475054701098998,-57.0,-36.0,1,0,0,6.550993289545659,click_2,0.00612863723472401,None,1199.0262654506892,None,1199.0262654506892,None,1199.0262654506892,None,0.005340907851859811,0.010908576564361283,,,06,001,moebius,40,f,13,1,alice,2022_Nov_25_1154,CPO_EEG,2020.1.3,143.7247960168008,
stimoli/02.subtle/JM2_Fear.mp4,fear,subtle,maschio,8,10,1646,926,4,,,,,,,,,,,,,,,,,0,0,0,0,,,,,,,,,0,32,32,3,,,0.004846973303756386,0.00817140940034733,1207.1761210229447,None,0.006209142150510161,0.01267487367749709,-189.0,-39.0,1,0,0,2.432099395026853,click_1,0.006209142150510161,None,1217.7973931802394,None,1217.7973931802394,None,0.005453486440273991,0.011159392678564473,1220.229728958228,None,0.006132806811365299,0.012496864797867602,-162.0,-108.0,1,0,0,1.2402061439042882,click_2,0.006132806811365299,None,1220.731514499545,None,1220.731514499545,None,1220.731514499545,None,0.005355020266506472,0.01093648065761954,,,06,001,moebius,40,f,13,1,alice,2022_Nov_25_1154,CPO_EEG,2020.1.3,143.7247960168008,
stimoli/02.subtle/JF2_Happiness.mp4,happy,subtle,femmina,6,9,1646,926,14,,,,,,,,,,,,,,,,,0,0,0,0,,,,,,,,,0,33,33,13,,,0.0018176149897044525,0.005486201585881645,1223.5875316166216,None,0.0062203679353842745,0.012673911466663412,123.0,178.0,1,0,0,3.4079742204658032,click_1,0.0062203679353842745,None,1233.0905885582947,None,1233.0905885582947,None,0.00542173350459052,0.011071190080656379,1236.4987581074224,None,0.006127675023890333,0.01248852564367553,173.0,119.0,1,0,0,1.24036170121326,click_2,0.006127675023890333,None,1237.000530177797,None,1237.000530177797,None,1237.000530177797,None,0.0053963953050697455,0.011054191035327676,,,06,001,moebius,40,f,13,1,alice,2022_Nov_25_1154,CPO_EEG,2020.1.3,143.7247960168008,
stimoli/02.subtle/JF1_Neutral.mp4,neutral,subtle,femmina,5,10,1646,926,25,,,,,,,,,,,,,,,,,0,0,0,0,,,,,,,,,0,34,34,24,,,0.005198821484555083,0.009234010151885741,1239.8471400868934,None,0.006169370797579177,0.012549144883450936,60.0,-83.0,1,0,0,3.9932193050144633,click_1,0.006169370797579177,None,1250.668118321059,None,1250.668118321059,None,0.005397678251938487,0.011054511772272235,1254.6616634945808,None,0.006133769022198976,0.012500392902438762,-7.0,16.0,1,0,0,4.125548219238226,click_2,0.006133769022198976,None,1255.1634827132525,None,1255.1634827132525,None,1255.1634827132525,None,0.005359831318855868,0.010942895393782237,,,06,001,moebius,40,f,13,1,alice,2022_Nov_25_1154,CPO_EEG,2020.1.3,143.7247960168008,
stimoli/01.full/M03-Sadness-Face Forward.mp4,sad,full,maschio,4,6,720,576,48,,,,,,,,,,,,,,,,,0,0,0,0,,,,,,,,,0,35,35,47,,,0.0036759635413545766,0.007448789571753878,1260.9030595717136,None,0.006219084989425028,0.01267808104512369,-41.0,-189.0,1,0,0,4.0559226921868685,click_1,0.006219084989425028,None,1266.926958947624,None,1266.926958947624,None,0.005417884663984296,0.011055794718231482,1270.9830574035336,None,0.006098808719798399,0.012408982937813562,-102.0,-16.0,1,0,0,1.3377668770053788,click_2,0.006098808719798399,None,1271.484907412931,None,1271.484907412931,None,1271.484907412931,None,0.005354378792617354,0.010948347916382772,,,06,001,moebius,40,f,13,1,alice,2022_Nov_25_1154,CPO_EEG,2020.1.3,143.7247960168008,
stimoli/02.subtle/JM2_Disgust.mp4,disgusted,subtle,maschio,8,10,1646,926,12,,,,,,,,,,,,,,,,,0,0,0,0,,,,,,,,,0,36,36,11,,,0.0034543344681878807,0.006799939188567805,1274.4297695634964,None,0.006228065618415712,0.012667496734138695,32.0,151.0,1,0,0,5.554739173692724,click_1,0.006228065618415712,None,1285.056334838871,None,1285.056334838871,None,0.005447713178909908,0.011148487629725423,1290.6113164895237,None,0.006138900809673942,0.012546258252768894,-59.0,-83.0,1,0,0,5.624592744550682,click_2,0.006138900809673942,None,1291.1132267974249,None,1291.1132267974249,None,1291.1132267974249,None,0.00534315300774324,0.01094546128570073,,,06,001,moebius,40,f,13,1,alice,2022_Nov_25_1154,CPO_EEG,2020.1.3,143.7247960168008,
stimoli/01.full/M02-Anger-Face Forward.mp4,angry,full,maschio,3,6,720,576,35,,,,,,,,,,,,,,,,,0,0,0,0,,,,,,,,,0,37,37,34,,,0.0019029309560210095,0.005901555636228295,1298.3404661972359,None,0.006217802043465781,0.012648252530198079,-25.0,136.0,1,0,0,2.571468159503638,click_1,0.006217802043465781,None,1304.3667146488801,None,1304.3667146488801,None,0.00544867538883409,0.01113373374028015,1306.9384381148125,None,0.006141787439446489,0.012531183627288556,-55.0,75.0,1,0,0,1.4702038795030603,click_2,0.006141787439446489,None,1307.4401633576258,None,1307.4401633576258,None,1307.4401633576258,None,0.005380679204790795,0.010996137688380259,,,06,001,moebius,40,f,13,1,alice,2022_Nov_25_1154,CPO_EEG,2020.1.3,143.7247960168008,
stimoli/02.subtle/JF1_Surprise.mp4,surprised,subtle,femmina,5,10,1646,926,21,,,,,,,,,,,,,,,,,0,0,0,0,,,,,,,,,0,38,38,20,,,0.0026803967648447724,0.006387151031049143,1310.5185729012114,None,0.006195991945787682,0.012650818423935561,28.0,-134.0,1,0,0,5.442920410466286,click_1,0.006195991945787682,None,1321.342978207223,None,1321.342978207223,None,0.005430393396636646,0.011090113547652436,1326.786105813609,None,0.006149805858512991,0.012522202999207366,114.0,-158.0,1,0,0,3.8328070043762636,click_2,0.006149805858512991,None,1327.2878519043102,None,1327.2878519043102,None,1327.2878519043102,None,0.005372019313654164,0.010984270429617027,,,06,001,moebius,40,f,13,1,alice,2022_Nov_25_1154,CPO_EEG,2020.1.3,143.7247960168008,
stimoli/02.subtle/JM2_Sadness.mp4,sad,subtle,maschio,8,10,1646,926,20,,,,,,,,,,,,,,,,,0,0,0,0,,,,,,,,,0,39,39,19,,,0.006019907486006559,0.009364229259517742,1332.7319952838875,None,0.006225499723768735,0.01269604230128607,126.0,-173.0,1,0,0,8.921092673026578,click_1,0.006225499723768735,None,1343.3544140749532,None,1343.3544140749532,None,0.00546118412148644,0.011125715323032637,1352.2757017559047,None,0.006119015133663197,0.012502958796176245,33.0,142.0,1,0,0,5.722117555139448,click_2,0.006119015133663197,None,1352.7774866557488,None,1352.7774866557488,None,1352.7774866557488,None,0.005355020266506472,0.0109368013945641,,,06,001,moebius,40,f,13,1,alice,2022_Nov_25_1154,CPO_EEG,2020.1.3,143.7247960168008,
stimoli/02.subtle/JM1_Anger.mp4,angry,subtle,maschio,7,10,1646,926,7,,,,,,,,,,,,,,,,,0,0,0,0,,,,,,,,,0,40,40,6,,,0.0032901172680794843,0.006876274527712667,1360.1003764807615,None,0.006167125640786253,0.012547861936582194,-148.0,-26.0,1,0,0,7.986634900901663,click_1,0.006167125640786253,None,1370.5235414337317,None,1370.5235414337317,None,0.005447071705930284,0.011119621325633489,1378.510450243792,None,0.006122543236415368,0.01247601691102318,-139.0,34.0,1,0,0,5.637884394939647,click_2,0.006122543236415368,None,1379.0122328984785,None,1379.0122328984785,None,1379.0122328984785,None,0.005373943734412023,0.010993251058607711,,,06,001,moebius,40,f,13,1,alice,2022_Nov_25_1154,CPO_EEG,2020.1.3,143.7247960168008,
stimoli/01.full/F01-Anger-Face Forward.mp4,angry,full,femmina,1,6,720,576,33,,,,,,,,,,,,,,,,,0,0,0,0,,,,,,,,,0,41,41,32,,,0.0010741472742665792,0.004640739594833576,1386.2530757047712,None,0.006197595628691488,0.012639913375096512,-18.0,149.0,1,0,0,3.024528661354452,click_1,0.006197595628691488,None,1392.279718341842,None,1392.279718341842,None,0.005471447696436371,0.0111478461567458,1395.3044602931145,None,0.0061315238644965575,0.012500072165494203,-128.0,178.0,1,0,0,5.505971476241939,click_2,0.0061315238644965575,None,1395.8063366029232,None,1395.8063366029232,None,1395.8063366029232,None,0.005354058056582289,0.010944178339741484,,,06,001,moebius,40,f,13,1,alice,2022_Nov_25_1154,CPO_EEG,2020.1.3,143.7247960168008,
stimoli/01.full/M02-Neutral-Face Forward.mp4,neutral,full,maschio,3,6,720,576,55,,,,,,,,,,,,,,,,,0,0,0,0,,,,,,,,,0,42,42,54,,,0.004863651613050024,0.009127846297815267,1402.9258273884784,None,0.00621459467583918,0.012638309692192706,0.0,4.0,1,0,0,1.2960669339045126,click_1,0.00621459467583918,None,1408.9514491205723,None,1408.9514491205723,None,0.005465353699037223,0.01116741109672148,1410.2477588521729,None,0.006134731232123158,0.012534711730950221,-19.0,-102.0,1,0,0,4.195343095276257,click_2,0.006134731232123158,None,1410.7496069371505,None,1410.7496069371505,None,1410.7496069371505,None,0.005376830365094065,0.010964384753606282,,,06,001,moebius,40,f,13,1,alice,2022_Nov_25_1154,CPO_EEG,2020.1.3,143.7247960168008,
stimoli/01.full/M03-Disgust-Face Forward.mp4,disgusted,full,maschio,4,6,720,576,40,,,,,,,,,,,,,,,,,0,0,0,0,,,,,,,,,0,43,43,39,,,0.00484697330466588,0.008473222654174606,1416.5374039954818,None,0.006217802042556286,0.012672628520704166,-39.0,188.0,1,0,0,1.4563288090212154,click_1,0.006217802042556286,None,1422.5613646321049,None,1422.5613646321049,None,0.005466957382850524,0.011139507002553728,1424.017897750417,None,0.00612510913015285,0.01248820490673097,-166.0,103.0,1,0,0,1.170435643856763,click_2,0.00612510913015285,None,1424.5197455146576,None,1424.5197455146576,None,1424.5197455146576,None,0.005393829409513273,0.011021475888810528,,,06,001,moebius,40,f,13,1,alice,2022_Nov_25_1154,CPO_EEG,2020.1.3,143.7247960168008,
stimoli/01.full/M02-Surprise-Face Forward.mp4,surprised,full,maschio,3,6,720,576,51,,,,,,,,,,,,,,,,,0,0,0,0,,,,,,,,,0,44,44,50,,,0.005788977049633104,0.00961215874485788,1427.3022189849194,None,0.0061013746135358815,0.012422774616425158,40.0,-152.0,1,0,0,2.1671423192219663,click_1,0.0061013746135358815,None,1433.3267640038462,None,1433.3267640038462,None,0.0053919049896649085,0.011010570839971479,1435.4942633030364,None,0.006134731232123158,0.012505524689913727,1.0,0.0,1,0,0,1.8605362974540185,click_2,0.006134731232123158,None,1435.9960167706818,None,1435.9960167706818,None,1435.9960167706818,None,0.005393829409513273,0.010994854741511517,,,06,001,moebius,40,f,13,1,alice,2022_Nov_25_1154,CPO_EEG,2020.1.3,143.7247960168008,
stimoli/02.subtle/JF2_Fear.mp4,fear,subtle,femmina,6,10,1646,926,2,,,,,,,,,,,,,,,,,0,0,0,0,,,,,,,,,0,45,45,1,,,0.0025691011223898386,0.006055509262296255,1439.4714448098707,None,0.006180275847327721,0.012588916237291414,-44.0,-52.0,1,0,0,8.970095470491287,click_1,0.006180275847327721,None,1449.8940180035938,None,1449.8940180035938,None,0.005432638552520075,0.01112635679601226,1458.8643998919756,None,0.006118694395809143,0.012501996585342567,39.0,-54.0,1,0,0,2.4601118986265647,click_2,0.006118694395809143,None,1459.3662396377981,None,1459.3662396377981,None,1459.3662396377981,None,0.005354058057491784,0.010937122131508659,,,06,001,moebius,40,f,13,1,alice,2022_Nov_25_1154,CPO_EEG,2020.1.3,143.7247960168008,
stimoli/01.full/F01-Fear-Face Forward.mp4,fear,full,femmina,1,6,720,576,29,,,,,,,,,,,,,,,,,0,0,0,0,,,,,,,,,0,46,46,28,,,0.002998888327056193,0.007247046176416916,1463.4281979535713,None,0.006207538467606355,0.012672307783759607,49.0,-207.0,1,0,0,2.125374379935238,click_1,0.006207538467606355,None,1469.4536792029817,None,1469.4536792029817,None,0.005542971984141332,0.011309497463116713,1471.5793698293232,None,0.0060821304095952655,0.012412511040565732,-97.0,-156.0,1,0,0,4.439130906126593,click_2,0.0060821304095952655,None,1472.081206688515,None,1472.081206688515,None,1472.081206688515,None,0.005340266377970693,0.010916915718553355,,,06,001,moebius,40,f,13,1,alice,2022_Nov_25_1154,CPO_EEG,2020.1.3,143.7247960168008,
stimoli/01.full/M03-Joy-Face Forward.mp4,happy,full,maschio,4,6,720,576,44,,,,,,,,,,,,,,,,,0,0,0,0,,,,,,,,,0,47,47,43,,,0.0032413652861578157,0.007044982042316406,1478.1213549073677,None,0.006185086896948633,0.012596934655448422,175.0,120.0,1,0,0,1.762944132154189,click_1,0.006185086896948633,None,1484.1464211234638,None,1484.1464211234638,None,0.005461825595375558,0.011157788994751172,1485.909638844039,None,0.006143391123259789,0.012510656477388693,200.0,50.0,1,0,0,6.4813696869159685,click_2,0.006143391123259789,None,1486.4114093107305,None,1486.4114093107305,None,1486.4114093107305,None,0.005347322585294023,0.01091884013840172,,,06,001,moebius,40,f,13,1,alice,2022_Nov_25_1154,CPO_EEG,2020.1.3,143.7247960168008,
stimoli/01.full/M02-Disgust-Face Forward.mp4,disgusted,full,maschio,3,6,720,576,39,,,,,,,,,,,,,,,,,0,0,0,0,,,,,,,,,0,48,48,38,,,0.005122165408465662,0.008616591966529086,1494.4982792474998,None,0.006221009410182887,0.012682250622674474,-103.0,171.0,1,0,0,1.4005773902417786,click_1,0.006221009410182887,None,1500.5238240027816,None,1500.5238240027816,None,0.0054720891694159945,0.011186976035787666,1501.9246611897665,None,0.006121901764345239,0.012460942286452337,-171.0,120.0,1,0,0,1.1706444434603327,click_2,0.006121901764345239,None,1502.4263976583657,None,1502.4263976583657,None,1502.4263976583657,None,0.00539318793653365,0.010995175477546582,,,06,001,moebius,40,f,13,1,alice,2022_Nov_25_1154,CPO_EEG,2020.1.3,143.7247960168008,
stimoli/01.full/M03-Surprise-Face Forward.mp4,surprised,full,maschio,4,6,720,576,52,,,,,,,,,,,,,,,,,0,0,0,0,,,,,,,,,0,49,49,51,,,0.0065330862380506005,0.01055897354035551,1505.2018893317195,None,0.006189577211443975,0.012598217602317163,48.0,-203.0,1,0,0,2.334416140497524,click_1,0.006189577211443975,None,1511.2268901175244,None,1511.2268901175244,None,0.005427827502899163,0.011075038922172098,1513.5615503386657,None,0.006144032597148907,0.01250488321602461,117.0,-160.0,1,0,0,2.466766864818055,click_2,0.006144032597148907,None,1514.0633679536545,None,1514.0633679536545,None,1514.0633679536545,None,0.005473372117194231,0.011170297727403522,,,06,001,moebius,40,f,13,1,alice,2022_Nov_25_1154,CPO_EEG,2020.1.3,143.7247960168008,
stimoli/01.full/F01-Sadness-Face Forward.mp4,sad,full,femmina,1,6,720,576,45,,,,,,,,,,,,,,,,,0,0,0,0,,,,,,,,,0,50,50,44,,,0.004227630697641871,0.007889161086495733,1518.1368346236573,None,0.006166804904751189,0.012566464666633692,-30.0,-191.0,1,0,0,1.7489686710787282,click_1,0.006166804904751189,None,1524.1630128339589,None,1524.1630128339589,None,0.005448996125778649,0.011123149429295154,1525.9122461128313,None,0.006113241872299113,0.012464149653169443,6.0,4.0,1,0,0,4.216250639067766,click_2,0.006113241872299113,None,1526.4140374274089,None,1526.4140374274089,None,1526.4140374274089,None,0.005370415630750358,0.010980100852975738,,,06,001,moebius,40,f,13,1,alice,2022_Nov_25_1154,CPO_EEG,2020.1.3,143.7247960168008,
stimoli/01.full/M03-Anger-Face Forward.mp4,angry,full,maschio,4,6,720,576,36,,,,,,,,,,,,,,,,,0,0,0,0,,,,,,,,,0,51,51,35,,,0.006189897948388534,0.009770602684511687,1532.2280794092799,None,0.006199520049449347,0.012645365899516037,-38.0,198.0,1,0,0,2.020848528235547,click_1,0.006199520049449347,None,1538.2515647140858,None,1538.2515647140858,None,0.005474013591083349,0.011181202776242571,1540.2726733598006,None,0.00612318471121398,0.012480827963372576,51.0,215.0,1,0,0,1.302976244313868,click_2,0.00612318471121398,None,1540.7744313177595,None,1540.7744313177595,None,1540.7744313177595,None,0.005397357514084433,0.011016664838280121,,,06,001,moebius,40,f,13,1,alice,2022_Nov_25_1154,CPO_EEG,2020.1.3,143.7247960168008,
stimoli/02.subtle/JM1_Surprise.mp4,surprised,subtle,maschio,7,10,1646,926,23,,,,,,,,,,,,,,,,,0,0,0,0,,,,,,,,,0,52,52,22,,,0.003462032150309824,0.0068304091782920295,1543.6777814769416,None,0.006225499723768735,0.012693155670604028,112.0,-154.0,1,0,0,1.8885571402088317,click_1,0.006225499723768735,None,1554.1047971949652,None,1554.1047971949652,None,0.00546118412148644,0.01114752541980124,1555.993547418679,None,0.006095601352171798,0.012405775570186961,35.0,-187.0,1,0,0,1.247274860464131,click_2,0.006095601352171798,None,1556.4953105084255,None,1556.4953105084255,None,1556.4953105084255,None,0.0053819621507500415,0.010982025271914608,,,06,001,moebius,40,f,13,1,alice,2022_Nov_25_1154,CPO_EEG,2020.1.3,143.7247960168008,
stimoli/02.subtle/JM1_Sadness.mp4,sad,subtle,maschio,7,10,1646,926,19,,,,,,,,,,,,,,,,,0,0,0,0,,,,,,,,,0,53,53,18,,,0.002782711777399527,0.006512238350296684,1559.3576708356027,None,0.006192143105181458,0.012613933700777125,117.0,-157.0,1,0,0,2.989669711741044,click_1,0.006192143105181458,None,1569.782242860561,None,1569.782242860561,None,0.005456052334920969,0.011120262799522607,1572.772156011472,None,0.006100733140556258,0.012440735873497033,-178.0,-31.0,1,0,0,1.1355372436273683,click_2,0.006100733140556258,None,1573.2739364210015,None,1573.2739364210015,None,1573.2739364210015,None,0.005483956428179226,0.011227388862607768,,,06,001,moebius,40,f,13,1,alice,2022_Nov_25_1154,CPO_EEG,2020.1.3,143.7247960168008,
stimoli/01.full/M02-Sadness-Face Forward.mp4,sad,full,maschio,3,6,720,576,47,,,,,,,,,,,,,,,,,0,0,0,0,,,,,,,,,0,54,54,46,,,0.004913686541840434,0.008655080373500823,1576.0020972974085,None,0.006219726463314146,0.012643120742723113,-193.0,-34.0,1,0,0,3.017527940979562,click_1,0.006219726463314146,None,1581.6668719381673,None,1581.6668719381673,None,0.005464712225148105,0.01116548667596362,1584.6846539026278,None,0.006121260289546626,0.012471526597437332,-161.0,-111.0,1,0,0,4.174366593088962,click_2,0.006121260289546626,None,1585.1864497075198,None,1585.1864497075198,None,1585.1864497075198,None,0.005329682066985697,0.010902482566962135,,,06,001,moebius,40,f,13,1,alice,2022_Nov_25_1154,CPO_EEG,2020.1.3,143.7247960168008,
stimoli/02.subtle/JF2_Surprise.mp4,surprised,subtle,femmina,6,10,1646,926,22,,,,,,,,,,,,,,,,,0,0,0,0,,,,,,,,,0,55,55,21,,,0.006704680383336381,0.010469167258634116,1590.9785722212496,None,0.006195991945787682,0.012646969583329337,40.0,-137.0,1,0,0,1.9581422544324596,click_1,0.006195991945787682,None,1601.4028276790655,None,1601.4028276790655,None,0.0054608633854513755,0.011178957618540153,1603.3612284472943,None,0.0061161285020716605,0.012493015957261377,109.0,-158.0,1,0,0,1.4146099424533531,click_2,0.0061161285020716605,None,1603.8630527977543,None,1603.8630527977543,None,1603.8630527977543,None,0.005356944687264331,0.010973044644742913,,,06,001,moebius,40,f,13,1,alice,2022_Nov_25_1154,CPO_EEG,2020.1.3,143.7247960168008,
,,,,,,,,,,,,,,,,,,,,,,,,,0,0,0,0,,,,,,,,,,,,,,,,,,,,,,,,,,,,,,,,,,,,,,,,,,,,,,,,,,,,,,,,,,,06,001,moebius,40,f,13,1,alice,2022_Nov_25_1154,CPO_EEG,2020.1.3,143.7247960168008,
,,,,,,,,,,,,,,,,,,,,,,,,,1,0,1,0,,,,,0,0,0,0,,,,,,,,,,,,,,,,,,,,,,,,,,,,,,,,,,,,,,,,,,,,,,,,,,,06,001,moebius,40,f,13,1,alice,2022_Nov_25_1154,CPO_EEG,2020.1.3,143.7247960168008,
stimoli/01.full/F03-Surprise-Face Forward.mp4,surprised,full,femmina,2,6,720,576,50,,,,,,,,,,,,,,,,,1,0,1,0,,,,,,,,,0,0,0,49,,,0.0003993172149421298,0.006046207897270506,1685.4355825957996,None,0.00594966614517034,0.012128659044719825,56.0,-203.0,1,0,0,2.0128439019290454,click_1,0.00594966614517034,None,1691.4551760812515,None,1691.4551760812515,None,0.004615080654730264,0.009440564598662604,1693.468489541738,None,0.005782241577435343,0.01181337484922551,114.0,-167.0,1,0,0,1.044951251225939,click_2,0.005782241577435343,None,1693.9701025267,None,1693.9701025267,None,1693.9701025267,None,0.004495766595937312,0.00925068846117938,,,06,001,moebius,40,f,13,1,alice,2022_Nov_25_1154,CPO_EEG,2020.1.3,143.7247960168008,
stimoli/01.full/F03-Joy-Face Forward.mp4,happy,full,femmina,2,6,720,576,42,,,,,,,,,,,,,,,,,1,0,1,0,,,,,,,,,0,1,1,41,,,0.0016254936945188092,0.00607667788699473,1696.6052686779426,None,0.006188935737554857,0.012593085813932703,186.0,114.0,1,0,0,2.0069487610262513,click_1,0.006188935737554857,None,1702.6274376792512,None,1702.6274376792512,None,0.005458618227748957,0.011142393632326275,1704.6346468784936,None,0.006120939553511562,0.012476658384912298,50.0,86.0,1,0,0,1.5260495948778043,click_2,0.006120939553511562,None,1705.1364151000284,None,1705.1364151000284,None,1705.1364151000284,None,0.005391584254539339,0.010991326638759347,,,06,001,moebius,40,f,13,1,alice,2022_Nov_25_1154,CPO_EEG,2020.1.3,143.7247960168008,
stimoli/01.full/M03-Anger-Face Forward.mp4,angry,full,maschio,4,6,720,576,36,,,,,,,,,,,,,,,,,1,0,1,0,,,,,,,,,0,2,2,35,,,0.0029360239295783686,0.0066065349465134204,1708.243252180528,None,0.006191822368236899,0.012591802867973456,-34.0,198.0,1,0,0,1.4842495819202668,click_1,0.006191822368236899,None,1714.270629946161,None,1714.270629946161,None,0.0054663159089614055,0.011142393632326275,1715.7551306649316,None,0.00613954228356306,0.012513222371126176,-83.0,58.0,1,0,0,1.4005138843722307,click_2,0.00613954228356306,None,1716.2569242246668,None,1716.2569242246668,None,1716.2569242246668,None,0.0053829243615837186,0.011003835369592707,,,06,001,moebius,40,f,13,1,alice,2022_Nov_25_1154,CPO_EEG,2020.1.3,143.7247960168008,
stimoli/02.subtle/JF2_Neutral.mp4,neutral,subtle,femmina,6,9,1646,926,26,,,,,,,,,,,,,,,,,1,0,1,0,,,,,,,,,0,3,3,25,,,0.0023291900561162038,0.005873972279005102,1719.2454832251483,None,0.006205293311722926,0.012623235066712368,-20.0,-99.0,1,0,0,3.449660371888058,click_1,0.006205293311722926,None,1728.7478088871017,None,1728.7478088871017,None,0.005453486440273991,0.011129564163638861,1732.19771943363,None,0.006119656605733326,0.012501034375418385,24.0,-99.0,1,0,0,3.9583006983721134,click_2,0.006119656605733326,None,1732.6995274265178,None,1732.6995274265178,None,1732.6995274265178,None,0.005344115218576917,0.01094898939027189,,,06,001,moebius,40,f,13,1,alice,2022_Nov_25_1154,CPO_EEG,2020.1.3,143.7247960168008,
stimoli/02.subtle/JM1_Neutral.mp4,neutral,subtle,maschio,7,10,1646,926,27,,,,,,,,,,,,,,,,,1,0,1,0,,,,,,,,,0,4,4,26,,,0.0020270560671633575,0.00535020921688556,1738.2391781827187,None,0.006184445423059515,0.012599821285220969,61.0,-77.0,1,0,0,3.296328655067555,click_1,0.006184445423059515,None,1748.660759979242,None,1748.660759979242,None,0.005426544556939916,0.011082415866439987,1751.9573429785282,None,0.005984947184515477,0.012204994383864687,94.0,-54.0,1,0,0,2.7457590587273444,click_2,0.005984947184515477,None,1752.4591750266695,None,1752.4591750266695,None,1752.4591750266695,None,0.005365925315345521,0.010960856649035122,,,06,001,moebius,40,f,13,1,alice,2022_Nov_25_1154,CPO_EEG,2020.1.3,143.7247960168008,
stimoli/01.full/F03-Neutral-Face Forward.mp4,neutral,full,femmina,2,6,720,576,54,,,,,,,,,,,,,,,,,1,0,1,0,,,,,,,,,0,5,5,53,,,0.005048395963967778,0.009143241660240164,1756.7844190592018,None,0.006217802042556286,0.012652101370804303,115.0,-163.0,1,0,0,1.7212047384364269,click_1,0.006217802042556286,None,1762.810949438422,None,1762.810949438422,None,0.005442260656309372,0.011111282171441417,1764.5323764474047,None,0.006130240917627816,0.012502638059231685,10.0,70.0,1,0,0,3.4077820991706176,click_2,0.006130240917627816,None,1765.0341744974535,None,1765.0341744974535,None,1765.0341744974535,None,0.00531621112349967,0.01087040889342461,,,06,001,moebius,40,f,13,1,alice,2022_Nov_25_1154,CPO_EEG,2020.1.3,143.7247960168008,
stimoli/01.full/F03-Anger-Face Forward.mp4,angry,full,femmina,2,6,720,576,34,,,,,,,,,,,,,,,,,1,0,1,0,,,,,,,,,0,6,6,33,,,0.00472701777198381,0.008540577366147772,1770.041383055222,None,0.006217481305611727,0.012653705053708109,-104.0,163.0,1,0,0,4.021230525668216,click_1,0.006217481305611727,None,1776.065303920493,None,1776.065303920493,None,0.005443864339213178,0.011148166893690359,1780.0868048272155,None,0.006094318405303056,0.012441056609532097,-25.0,-136.0,1,0,0,3.67268272531237,click_2,0.006094318405303056,None,1780.5885993491606,None,1780.5885993491606,None,1780.5885993491606,None,0.005253025990896276,0.01072864326488343,,,06,001,moebius,40,f,13,1,alice,2022_Nov_25_1154,CPO_EEG,2020.1.3,143.7247960168008,
stimoli/02.subtle/JM2_Sadness.mp4,sad,subtle,maschio,8,10,1646,926,20,,,,,,,,,,,,,,,,,1,0,1,0,,,,,,,,,0,7,7,19,,,0.0007197331988209044,0.004040320454805624,1785.8439368892773,None,0.0061998407863939065,0.012626763169464539,-146.0,-107.0,1,0,0,2.682943092966525,click_1,0.0061998407863939065,None,1796.465210329518,None,1796.465210329518,None,0.00546278780529974,0.01113309226821002,1799.1483978238653,None,0.0061254298670974094,0.012514505317085423,-188.0,-33.0,1,0,0,1.0521973351906126,click_2,0.0061254298670974094,None,1799.6502558516809,None,1799.6502558516809,None,1799.6502558516809,None,0.005413394351307943,0.011051945878534752,,,06,001,moebius,40,f,13,1,alice,2022_Nov_25_1154,CPO_EEG,2020.1.3,143.7247960168008,
stimoli/02.subtle/JF1_Fear.mp4,fear,subtle,femmina,5,10,1646,926,1,,,,,,,,,,,,,,,,,1,0,1,0,,,,,,,,,0,8,8,0,,,0.0038151632779772626,0.007849068997529685,1802.2896743303495,None,0.00621844351553591,0.012648573266233143,-175.0,34.0,1,0,0,1.5817897878714575,click_1,0.00621844351553591,None,1813.1121510464677,None,1813.1121510464677,None,0.005464712225148105,0.011183447933035495,1814.6942320632802,None,0.0061350519690677174,0.012539202045445563,-58.0,-87.0,1,0,0,3.6934901992481173,click_2,0.0061350519690677174,None,1815.1959986811303,None,1815.1959986811303,None,1815.1959986811303,None,0.00534475669155654,0.010944819812721107,,,06,001,moebius,40,f,13,1,alice,2022_Nov_25_1154,CPO_EEG,2020.1.3,143.7247960168008,
stimoli/01.full/M02-Surprise-Face Forward.mp4,surprised,full,maschio,3,6,720,576,51,,,,,,,,,,,,,,,,,1,0,1,0,,,,,,,,,0,9,9,50,,,0.0020498283729466493,0.0055859507046989165,1820.470937725117,None,0.00615397543515428,0.012557804774587566,52.0,-196.0,1,0,0,1.5469218576299681,click_1,0.00615397543515428,None,1826.4946895621365,None,1826.4946895621365,None,0.005452844966384873,0.011153298681165325,1828.0418827630315,None,0.006109713767727953,0.012448112816855428,115.0,-171.0,1,0,0,3.059214413137852,click_2,0.006109713767727953,None,1828.5437154526458,None,1828.5437154526458,None,1828.5437154526458,None,0.005362076474739297,0.01094898939027189,,,06,001,moebius,40,f,13,1,alice,2022_Nov_25_1154,CPO_EEG,2020.1.3,143.7247960168008,
stimoli/02.subtle/JM2_Anger.mp4,angry,subtle,maschio,8,10,1646,926,8,,,,,,,,,,,,,,,,,1,0,1,0,,,,,,,,,0,10,10,7,,,0.001426316190190846,0.004738885028928053,1833.1848601363386,None,0.006201765207151766,0.0126351023254756,-196.0,-37.0,1,0,0,1.8535567457029174,click_1,0.006201765207151766,None,1844.171099248129,None,1844.171099248129,None,0.005453807176309056,0.011137903317830933,1846.0249154698372,None,0.006109393031692889,0.012457093445846112,-79.0,-50.0,1,0,0,1.8607746048364788,click_2,0.006109393031692889,None,1846.5267346885098,None,1846.5267346885098,None,1846.5267346885098,None,0.005365925315345521,0.010951876020953932,,,06,001,moebius,40,f,13,1,alice,2022_Nov_25_1154,CPO_EEG,2020.1.3,143.7247960168008,
stimoli/02.subtle/JF2_Happiness.mp4,happy,subtle,femmina,6,9,1646,926,14,,,,,,,,,,,,,,,,,1,0,1,0,,,,,,,,,0,11,11,13,,,0.005665493412379874,0.009970421660000284,1849.9799032786345,None,0.006213311728970439,0.012668458944062877,114.0,173.0,1,0,0,2.4181803836145264,click_1,0.006213311728970439,None,1859.480975501488,None,1859.480975501488,None,0.0053332101697378675,0.010915953507719678,1861.8993893814336,None,0.006118694395809143,0.01249718553481216,177.0,107.0,1,0,0,1.386557667499801,click_2,0.006118694395809143,None,1862.401219825891,None,1862.401219825891,None,1862.401219825891,None,0.0053614350017596735,0.010953158967822674,,,06,001,moebius,40,f,13,1,alice,2022_Nov_25_1154,CPO_EEG,2020.1.3,143.7247960168008,
stimoli/01.full/M03-Sadness-Face Forward.mp4,sad,full,maschio,4,6,720,576,48,,,,,,,,,,,,,,,,,1,0,1,0,,,,,,,,,0,12,12,47,,,0.003261571700022614,0.006913479986906168,1865.3682144137797,None,0.006217802041646792,0.012676477360400895,-49.0,-192.0,1,0,0,2.4739064641926234,click_1,0.006217802041646792,None,1871.3951158853838,None,1871.3951158853838,None,0.005379396257922053,0.011025003993381688,1873.8693116540967,None,0.006129278708613128,0.012488846380620089,-41.0,-46.0,1,0,0,3.951301260944092,click_2,0.006129278708613128,None,1874.3710420286984,None,1874.3710420286984,None,1874.3710420286984,None,0.005195934854782536,0.010622479409903463,,,06,001,moebius,40,f,13,1,alice,2022_Nov_25_1154,CPO_EEG,2020.1.3,143.7247960168008,
stimoli/02.subtle/JF1_Sadness.mp4,sad,subtle,femmina,5,10,1646,926,17,,,,,,,,,,,,,,,,,1,0,1,0,,,,,,,,,0,13,13,16,,,0.0043652267504512565,0.007830466267478187,1879.908258072462,None,0.00620048225937353,0.012629008327166957,39.0,185.0,1,0,0,4.251468813807151,click_1,0.00620048225937353,None,1890.7333362841114,None,1890.7333362841114,None,0.005443222866233555,0.011111602908385976,1894.9850520651912,None,0.006013172015627788,0.012293838455661898,-190.0,39.0,1,0,0,0.8847493538760318,click_2,0.006013172015627788,None,1895.4869206773187,None,1895.4869206773187,None,1895.4869206773187,None,0.0054111491936055245,0.01108530249712203,,,06,001,moebius,40,f,13,1,alice,2022_Nov_25_1154,CPO_EEG,2020.1.3,143.7247960168008,
stimoli/01.full/F03-Disgust-Face Forward.mp4,disgusted,full,femmina,2,6,720,576,38,,,,,,,,,,,,,,,,,1,0,1,0,,,,,,,,,0,14,14,37,,,0.0021893488456043997,0.0062546867648052284,1897.9539357923572,None,0.006208500678440032,0.01262997053709114,-117.0,167.0,1,0,0,1.2054873562383364,click_1,0.006208500678440032,None,1903.9779429358055,None,1903.9779429358055,None,0.005490691900376987,0.011185693089828419,1905.183671486057,None,0.0061263920779310865,0.012514505318904412,-157.0,100.0,1,0,0,0.828984464154928,click_2,0.0061263920779310865,None,1905.6855137977732,None,1905.6855137977732,None,1905.6855137977732,None,0.005360472790925996,0.010981063061990426,,,06,001,moebius,40,f,13,1,alice,2022_Nov_25_1154,CPO_EEG,2020.1.3,143.7247960168008,
stimoli/02.subtle/JF1_Neutral.mp4,neutral,subtle,femmina,5,10,1646,926,25,,,,,,,,,,,,,,,,,1,0,1,0,,,,,,,,,0,15,15,24,,,0.004039678980007011,0.007596328461659141,1908.1008684908888,None,0.006208500677530537,0.01267840178206825,115.0,-155.0,1,0,0,1.923329170170291,click_1,0.006208500677530537,None,1918.926366226167,None,1918.926366226167,None,0.005466957381941029,0.011184410142050183,1920.849930175616,None,0.0061103552416170714,0.012497506272666214,-74.0,55.0,1,0,0,3.3799014183614418,click_2,0.0061103552416170714,None,1921.35173656482,None,1921.35173656482,None,1921.35173656482,None,0.005356944688173826,0.010938084342342336,,,06,001,moebius,40,f,13,1,alice,2022_Nov_25_1154,CPO_EEG,2020.1.3,143.7247960168008,
stimoli/02.subtle/JF2_Disgust.mp4,disgusted,subtle,femmina,6,10,1646,926,10,,,,,,,,,,,,,,,,,1,0,1,0,,,,,,,,,0,16,16,9,,,0.004992908511667338,0.008659891424940724,1926.3171290727946,None,0.0061761062697769376,0.012602387179867947,-115.0,83.0,1,0,0,2.4738128090702958,click_1,0.0061761062697769376,None,1936.7412459723487,None,1936.7412459723487,None,0.005449316862723208,0.011103584489319474,1939.2152845800688,None,0.006072508308534452,0.012351571064755262,-110.0,186.0,1,0,0,2.620323418078442,click_2,0.006072508308534452,None,1939.7171310613626,None,1939.7171310613626,None,1939.7171310613626,None,0.005374585207391647,0.010986836324264004,,,06,001,moebius,40,f,13,1,alice,2022_Nov_25_1154,CPO_EEG,2020.1.3,143.7247960168008,
stimoli/01.full/M02-Fear-Face Forward.mp4,fear,full,maschio,3,6,720,576,31,,,,,,,,,,,,,,,,,1,0,1,0,,,,,,,,,0,17,17,30,,,9.974911972676637e-05,0.004306211194489151,1943.9218749498846,None,0.006202727416166454,0.012645365899516037,-114.0,-168.0,1,0,0,1.184545172880462,click_1,0.006202727416166454,None,1949.9437661931947,None,1949.9437661931947,None,0.005465674435981782,0.011163882993059815,1951.1285339573583,None,0.006115487029092037,0.012474733965063933,49.0,-207.0,1,0,0,1.5259806364829274,click_2,0.006115487029092037,None,1951.6303496479272,None,1951.6303496479272,None,1951.6303496479272,None,0.005409866245827288,0.011025003993381688,,,06,001,moebius,40,f,13,1,alice,2022_Nov_25_1154,CPO_EEG,2020.1.3,143.7247960168008,
stimoli/02.subtle/JM1_Disgust.mp4,disgusted,subtle,maschio,7,10,1646,926,11,,,,,,,,,,,,,,,,,1,0,1,0,,,,,,,,,0,18,18,10,,,0.0020738836265081773,0.00540922477193817,1954.737680342239,None,0.006216198358742986,0.012695721564341511,-157.0,108.0,1,0,0,2.076686225192134,click_1,0.006216198358742986,None,1965.162982684707,None,1965.162982684707,None,0.0054361666580007295,0.011125715323032637,1967.2398870108686,None,0.006102978297349182,0.012423095353369717,40.0,-198.0,1,0,0,2.034758879756737,click_2,0.006102978297349182,None,1967.7416555531395,None,1967.7416555531395,None,1967.7416555531395,None,0.00534475669155654,0.010926537819614168,,,06,001,moebius,40,f,13,1,alice,2022_Nov_25_1154,CPO_EEG,2020.1.3,143.7247960168008,
stimoli/01.full/F01-Anger-Face Forward.mp4,angry,full,femmina,1,6,720,576,33,,,,,,,,,,,,,,,,,1,0,1,0,,,,,,,,,0,19,19,32,,,0.001806709940865403,0.005356623951229267,1971.3582770280022,None,0.006203368890055572,0.012661081998885493,-159.0,118.0,1,0,0,2.4042482219956582,click_1,0.006203368890055572,None,1977.3821863467506,None,1977.3821863467506,None,0.005463429278279364,0.011131488583487226,1979.7866247656216,None,0.006130561654572375,0.01249397816718556,-75.0,120.0,1,0,0,2.7037310019622964,click_2,0.006130561654572375,None,1980.2884539271322,None,1980.2884539271322,None,1980.2884539271322,None,0.005370736366785422,0.010965988436510088,,,06,001,moebius,40,f,13,1,alice,2022_Nov_25_1154,CPO_EEG,2020.1.3,143.7247960168008,
stimoli/01.full/F01-Joy-Face Forward.mp4,happy,full,femmina,1,6,720,576,41,,,,,,,,,,,,,,,,,1,0,1,0,,,,,,,,,0,20,20,40,,,0.004195877763777389,0.00782757963770564,1984.571674072477,None,0.006193426052050199,0.012600142022165528,176.0,126.0,1,0,0,2.452968771148335,click_1,0.006193426052050199,None,1990.5939469924838,None,1990.5939469924838,None,0.0054169224540601135,0.011086585443081276,1993.0471967289982,None,0.006118694396718638,0.012469602177588968,147.0,30.0,1,0,0,1.9025390160186362,click_2,0.006118694396718638,None,1993.54916958056,None,1993.54916958056,None,1993.54916958056,None,0.005372340051508218,0.010981704536789039,,,06,001,moebius,40,f,13,1,alice,2022_Nov_25_1154,CPO_EEG,2020.1.3,143.7247960168008,
stimoli/02.subtle/JM1_Anger.mp4,angry,subtle,maschio,7,10,1646,926,7,,,,,,,,,,,,,,,,,1,0,1,0,,,,,,,,,0,21,21,6,,,0.0005474975796460058,0.004505067960963061,1997.035315999438,None,0.006188935738464352,0.012606556756509235,-194.0,-31.0,1,0,0,1.871138249714022,click_1,0.006188935738464352,None,2007.4609307394717,None,2007.4609307394717,None,0.005552273350076575,0.011318157355162839,2009.3324317424153,None,0.0059778909762826515,0.012194089335025637,-166.0,-118.0,1,0,0,1.244855543389349,click_2,0.0059778909762826515,None,2009.8333522567996,None,2009.8333522567996,None,2009.8333522567996,None,0.005422054241535079,0.011053549561438558,,,06,001,moebius,40,f,13,1,alice,2022_Nov_25_1154,CPO_EEG,2020.1.3,143.7247960168008,
stimoli/02.subtle/JF1_Surprise.mp4,surprised,subtle,femmina,5,10,1646,926,21,,,,,,,,,,,,,,,,,1,0,1,0,,,,,,,,,0,22,22,20,,,0.0004329945704739657,0.003941533544093545,2012.6589176675257,None,0.006179313636494044,0.012570954981129034,34.0,-138.0,1,0,0,2.313532010486597,click_1,0.006179313636494044,None,2023.4824852092265,None,2023.4824852092265,None,0.005556763663662423,0.011340288187966507,2025.7964226309264,None,0.00613248607442074,0.012482431645366887,116.0,93.0,1,0,0,1.8046918650261432,click_2,0.00613248607442074,None,2026.2982242090789,None,2026.2982242090789,None,2026.2982242090789,None,0.005411469929640589,0.011029815043912095,,,06,001,moebius,40,f,13,1,alice,2022_Nov_25_1154,CPO_EEG,2020.1.3,143.7247960168008,
stimoli/01.full/M02-Sadness-Face Forward.mp4,sad,full,maschio,3,6,720,576,47,,,,,,,,,,,,,,,,,1,0,1,0,,,,,,,,,0,23,23,46,,,0.0038793106214143336,0.007505880707867618,2029.682767970718,None,0.006193746788085264,0.012632215693884064,-30.0,-141.0,1,0,0,3.352117279306185,click_1,0.006193746788085264,None,2035.3496690959269,None,2035.3496690959269,None,0.005461825594466063,0.01115329868025583,2038.7020083250422,None,0.0061260713409865275,0.012486280486882606,-161.0,110.0,1,0,0,4.153857083566436,click_2,0.0061260713409865275,None,2039.2038323547654,None,2039.2038323547654,None,2039.2038323547654,None,0.005364321632441715,0.010957328545373457,,,06,001,moebius,40,f,13,1,alice,2022_Nov_25_1154,CPO_EEG,2020.1.3,143.7247960168008,
stimoli/01.full/F01-Disgust-Face Forward.mp4,disgusted,full,femmina,1,6,720,576,37,,,,,,,,,,,,,,,,,1,0,1,0,,,,,,,,,0,24,24,36,,,0.0033247568335355027,0.00736571876132075,2044.9386100296938,None,0.0061966334187673056,0.012603349389792129,-151.0,114.0,1,0,0,1.8117865612603055,click_1,0.0061966334187673056,None,2050.965782523826,None,2050.965782523826,None,0.005459901173708204,0.01114399731523008,2052.777823108567,None,0.006121581026491185,0.012478262068725599,-105.0,166.0,1,0,0,1.0171632633291665,click_2,0.006121581026491185,None,2053.27964232724,None,2053.27964232724,None,2053.27964232724,None,0.0054053759331509355,0.011072793765379174,,,06,001,moebius,40,f,13,1,alice,2022_Nov_25_1154,CPO_EEG,2020.1.3,143.7247960168008,
stimoli/02.subtle/JF2_Anger.mp4,angry,subtle,femmina,6,9,1646,926,6,,,,,,,,,,,,,,,,,1,0,1,0,,,,,,,,,0,25,25,5,,,0.002132257710400154,0.0056202695341198705,2055.8850415450274,None,0.0062052933099039365,0.012640554848076135,-170.0,115.0,1,0,0,2.664391039642396,click_1,0.0062052933099039365,None,2065.3925378036333,None,2065.3925378036333,None,0.0054454680230264785,0.011117376168840565,2068.0571819045476,None,0.006083734094318061,0.01240449262331822,-66.0,-12.0,1,0,0,3.0886628550315436,click_2,0.006083734094318061,None,2068.5581046640896,None,2068.5581046640896,None,2068.5581046640896,None,0.005355982476430654,0.010926858555649233,,,06,001,moebius,40,f,13,1,alice,2022_Nov_25_1154,CPO_EEG,2020.1.3,143.7247960168008,
stimoli/01.full/M02-Neutral-Face Forward.mp4,neutral,full,maschio,3,6,720,576,55,,,,,,,,,,,,,,,,,1,0,1,0,,,,,,,,,0,26,26,54,,,0.004712263880719547,0.008315420186590927,2073.2299252491,None,0.006187973527630675,0.012583784449816449,0.0,0.0,1,0,0,1.100935524862507,click_1,0.006187973527630675,None,2079.2528893567364,None,2079.2528893567364,None,0.005428468975878786,0.011070227869822702,2080.354047472883,None,0.00618412468702445,0.012602707915903011,-10.0,-66.0,1,0,0,3.219443252372912,click_2,0.00618412468702445,None,2080.85585354135,None,2080.85585354135,None,2080.85585354135,None,0.005471126959491812,0.011168694043590222,,,06,001,moebius,40,f,13,1,alice,2022_Nov_25_1154,CPO_EEG,2020.1.3,143.7247960168008,
stimoli/02.subtle/JF1_Anger.mp4,angry,subtle,femmina,5,10,1646,926,5,,,,,,,,,,,,,,,,,1,0,1,0,,,,,,,,,0,27,27,4,,,0.005390301305851608,0.009446017123082129,2085.66099090968,None,0.006193746788994758,0.012617461805348285,-61.0,-84.0,1,0,0,6.746173129832641,click_1,0.006193746788994758,None,2096.4823870637897,None,2096.4823870637897,None,0.005427506765045109,0.011103263752374914,2103.228836347938,None,0.006134089759143535,0.01249943069251458,-94.0,-17.0,1,0,0,3.219520229185946,click_2,0.006134089759143535,None,2103.730602965788,None,2103.730602965788,None,2103.730602965788,None,0.005363038684663479,0.010981704535879544,,,06,001,moebius,40,f,13,1,alice,2022_Nov_25_1154,CPO_EEG,2020.1.3,143.7247960168008,
stimoli/02.subtle/JM2_Disgust.mp4,disgusted,subtle,maschio,8,10,1646,926,12,,,,,,,,,,,,,,,,,1,0,1,0,,,,,,,,,0,28,28,11,,,0.0011267480949754827,0.004516293745837174,2108.539189857535,None,0.006133769022198976,0.012530862891253491,-153.0,-105.0,1,0,0,2.4460036525497344,click_1,0.006133769022198976,None,2119.1641424686845,None,2119.1641424686845,None,0.00544675096989522,0.011133733741189644,2121.610437350176,None,0.006140183756542683,0.012494940378928732,-208.0,-26.0,1,0,0,1.623586914198313,click_2,0.006140183756542683,None,2122.1122107034976,None,2122.1122107034976,None,2122.1122107034976,None,0.0053668875252697035,0.010938084341432841,,,06,001,moebius,40,f,13,1,alice,2022_Nov_25_1154,CPO_EEG,2020.1.3,143.7247960168008,
stimoli/01.full/F01-Sadness-Face Forward.mp4,sad,full,femmina,1,6,720,576,45,,,,,,,,,,,,,,,,,1,0,1,0,,,,,,,,,0,29,29,44,,,0.004286325517568912,0.00792797023041203,2125.3152287077323,None,0.006195671209752618,0.012599179812241346,-47.0,-197.0,1,0,0,1.8048920047394859,click_1,0.006195671209752618,None,2131.3375455686696,None,2131.3375455686696,None,0.005473051379340177,0.011185372351974365,2133.1427233498257,None,0.006119015131844208,0.012518033421656583,-7.0,2.0,1,0,0,3.8680755347804734,click_2,0.006119015131844208,None,2133.644488043256,None,2133.644488043256,None,2133.644488043256,None,0.005341549324839434,0.010941612446004001,,,06,001,moebius,40,f,13,1,alice,2022_Nov_25_1154,CPO_EEG,2020.1.3,143.7247960168008,
stimoli/01.full/M02-Anger-Face Forward.mp4,angry,full,maschio,3,6,720,576,35,,,,,,,,,,,,,,,,,1,0,1,0,,,,,,,,,0,30,30,34,,,0.004884178762949887,0.009047020644175063,2139.0920389297403,None,0.006201765206242271,0.012642479268833995,-34.0,198.0,1,0,0,4.585623553878577,click_1,0.006201765206242271,None,2145.118136635125,None,2145.118136635125,None,0.0054396947625718894,0.011107433330835192,2149.703972195975,None,0.00613056165366288,0.012489487852690218,-41.0,58.0,1,0,0,1.8256818381551057,click_2,0.00613056165366288,None,2150.2057439456134,None,2150.2057439456134,None,2150.2057439456134,None,0.005405375931331946,0.011020513677976851,,,06,001,moebius,40,f,13,1,alice,2022_Nov_25_1154,CPO_EEG,2020.1.3,143.7247960168008,
stimoli/02.subtle/JM2_Neutral.mp4,neutral,subtle,maschio,8,10,1646,926,28,,,,,,,,,,,,,,,,,1,0,1,0,,,,,,,,,0,31,31,27,,,0.005231536630162736,0.008633591012767283,2153.6164765018652,None,0.006189256474499416,0.012608801913302159,0.0,0.0,1,0,0,1.100932958969679,click_1,0.006189256474499416,None,2164.6012963536728,None,2164.6012963536728,None,0.005431997081359441,0.01106894492477295,2165.7024243205674,None,0.006189256473589921,0.01262836685327784,0.0,0.0,1,0,0,0.7594144245567804,click_2,0.006189256473589921,None,2166.204283952067,None,2166.204283952067,None,2166.204283952067,None,0.0053668875252697035,0.010958611492242198,,,06,001,moebius,40,f,13,1,alice,2022_Nov_25_1154,CPO_EEG,2020.1.3,143.7247960168008,
stimoli/01.full/M03-Surprise-Face Forward.mp4,surprised,full,maschio,4,6,720,576,52,,,,,,,,,,,,,,,,,1,0,1,0,,,,,,,,,0,32,32,51,,,0.0028032389272993896,0.006428205329939374,2168.544442562789,None,0.00619150163129234,0.01262066917206539,36.0,-187.0,1,0,0,1.7421546194746043,click_1,0.00619150163129234,None,2174.5713767495386,None,2174.5713767495386,None,0.00543071413267171,0.011084661022323417,2176.3137584506107,None,0.006129278707703634,0.012485639012993488,104.0,-157.0,1,0,0,1.3377498779591406,click_2,0.006129278707703634,None,2176.815583121808,None,2176.815583121808,None,2176.815583121808,None,0.005375868154260388,0.01097978011603118,,,06,001,moebius,40,f,13,1,alice,2022_Nov_25_1154,CPO_EEG,2020.1.3,143.7247960168008,
stimoli/01.full/F01-Neutral-Face Forward.mp4,neutral,full,femmina,1,6,720,576,53,,,,,,,,,,,,,,,,,1,0,1,0,,,,,,,,,0,33,33,52,,,0.0017390344928571722,0.005295363237564743,2179.735279627894,None,0.006195671208843123,0.01265691242133471,-22.0,100.0,1,0,0,4.467051037551755,click_1,0.006195671208843123,None,2185.7561522113833,None,2185.7561522113833,None,0.005457976753859839,0.011150732786518347,2190.2234402733698,None,0.006131203128461493,0.012531183627288556,-32.0,50.0,1,0,0,2.6411193454923705,click_2,0.006131203128461493,None,2190.7252383234195,None,2190.7252383234195,None,2190.7252383234195,None,0.0053514921628448064,0.010912746141002572,,,06,001,moebius,40,f,13,1,alice,2022_Nov_25_1154,CPO_EEG,2020.1.3,143.7247960168008,
stimoli/01.full/M03-Joy-Face Forward.mp4,happy,full,maschio,4,6,720,576,44,,,,,,,,,,,,,,,,,1,0,1,0,,,,,,,,,0,34,34,43,,,0.005086242896140902,0.008705436038326297,2194.9516983330027,None,0.00615397543515428,0.012534711730950221,166.0,120.0,1,0,0,1.6653946248379725,click_1,0.00615397543515428,None,2200.977890334984,None,2200.977890334984,None,0.005442902127470006,0.011138865527755115,2202.6436194882194,None,0.006142428914245102,0.012500072166403697,93.0,17.0,1,0,0,2.4040990794219397,click_2,0.006142428914245102,None,2203.1453646167097,None,2203.1453646167097,None,2203.1453646167097,None,0.005355982477340149,0.010919802349235397,,,06,001,moebius,40,f,13,1,alice,2022_Nov_25_1154,CPO_EEG,2020.1.3,143.7247960168008,
stimoli/02.subtle/JM2_Fear.mp4,fear,subtle,maschio,8,10,1646,926,4,,,,,,,,,,,,,,,,,1,0,1,0,,,,,,,,,0,35,35,3,,,0.005229291474279307,0.00855789714751154,2207.134353083659,None,0.006184766160004074,0.012635102324566105,-169.0,-101.0,1,0,0,2.167312309683439,click_1,0.006184766160004074,None,2217.7569184514064,None,2217.7569184514064,None,0.0054756172739871545,0.011159071941619914,2219.924451107215,None,0.006140504493487242,0.012496544061832537,-204.0,-33.0,1,0,0,2.5214630597902215,click_2,0.006140504493487242,None,2220.426247874317,None,2220.426247874317,None,2220.426247874317,None,0.005402810038503958,0.011014098944542638,,,06,001,moebius,40,f,13,1,alice,2022_Nov_25_1154,CPO_EEG,2020.1.3,143.7247960168008,
stimoli/01.full/F03-Sadness-Face Forward.mp4,sad,full,femmina,2,6,720,576,46,,,,,,,,,,,,,,,,,1,0,1,0,,,,,,,,,0,36,36,45,,,0.0023006444880593335,0.005997135179313773,2224.526577848254,None,0.006204972572959377,0.012616178857570048,-40.0,-197.0,1,0,0,4.627697475994864,click_1,0.006204972572959377,None,2230.5540848707847,None,2230.5540848707847,None,0.005446750968985725,0.01113180932134128,2235.182021295635,None,0.006122863973359927,0.012461583758522465,-36.0,-53.0,1,0,0,4.8787467661722985,click_2,0.006122863973359927,None,2235.683913321543,None,2235.683913321543,None,2235.683913321543,None,0.005353095846658107,0.010914029087871313,,,06,001,moebius,40,f,13,1,alice,2022_Nov_25_1154,CPO_EEG,2020.1.3,143.7247960168008,
stimoli/01.full/F01-Fear-Face Forward.mp4,fear,full,femmina,1,6,720,576,29,,,,,,,,,,,,,,,,,1,0,1,0,,,,,,,,,0,37,37,28,,,0.004537783106570714,0.008682022257744393,2242.14252545527,None,0.0061757855328323785,0.012579614872265665,37.0,-195.0,1,0,0,2.773458202553229,click_1,0.0061757855328323785,None,2248.1690757201663,None,2248.1690757201663,None,0.005454769387142733,0.011165165939928556,2250.9428344530247,None,0.006119015132753702,0.012506807636782469,-57.0,37.0,1,0,0,3.2378288433401394,click_2,0.006119015132753702,None,2251.444664256009,None,2251.444664256009,None,2251.444664256009,None,0.005261685882942402,0.010738586102888803,,,06,001,moebius,40,f,13,1,alice,2022_Nov_25_1154,CPO_EEG,2020.1.3,143.7247960168008,
stimoli/01.full/F01-Surprise-Face Forward.mp4,surprised,full,femmina,1,6,720,576,49,,,,,,,,,,,,,,,,,1,0,1,0,,,,,,,,,0,38,38,48,,,0.003520085495438252,0.0071482592647953425,2256.259914453102,None,0.006195029734954005,0.012599821285220969,35.0,-193.0,1,0,0,2.146277433413161,click_1,0.006195029734954005,None,2262.282671364818,None,2262.282671364818,None,0.0054659951720168465,0.011137903318740427,2264.4291973691893,None,0.00607314978242357,0.012360230955891893,-2.0,3.0,1,0,0,2.7385395959099696,click_2,0.00607314978242357,None,2264.931013701231,None,2264.931013701231,None,2264.931013701231,None,0.005349247006051883,0.010956366335449275,,,06,001,moebius,40,f,13,1,alice,2022_Nov_25_1154,CPO_EEG,2020.1.3,143.7247960168008,
stimoli/02.subtle/JF2_Fear.mp4,fear,subtle,femmina,6,10,1646,926,2,,,,,,,,,,,,,,,,,1,0,1,0,,,,,,,,,0,39,39,1,,,0.005764601058217522,0.009307779598202615,2269.254259864739,None,0.006221650882253016,0.01265306357981899,11.0,-62.0,1,0,0,2.954974337855674,click_1,0.006221650882253016,None,2279.677603468062,None,2279.677603468062,None,0.005436808130070858,0.011076642604166409,2282.6327914165718,None,0.006122543237324862,0.01247954501559434,40.0,-45.0,1,0,0,1.2194377998484924,click_2,0.006122543237324862,None,2283.1346455955468,None,2283.1346455955468,None,2283.1346455955468,None,0.005370094893805799,0.010969195804136689,,,06,001,moebius,40,f,13,1,alice,2022_Nov_25_1154,CPO_EEG,2020.1.3,143.7247960168008,
stimoli/01.full/M03-Disgust-Face Forward.mp4,disgusted,full,maschio,4,6,720,576,40,,,,,,,,,,,,,,,,,1,0,1,0,,,,,,,,,0,40,40,39,,,0.00483286088820023,0.008803581474239763,2285.9333874736917,None,0.006208821414475096,0.012664610102547158,-116.0,159.0,1,0,0,2.6760177457208556,click_1,0.006208821414475096,None,2291.9595714572547,None,2291.9595714572547,None,0.005456052334011474,0.011137582581795868,2294.6357938330025,None,0.006049094528862042,0.0123326475986687,-161.0,115.0,1,0,0,0.9544592346837817,click_2,0.006049094528862042,None,2295.1375896378945,None,2295.1375896378945,None,2295.1375896378945,None,0.005249177150290052,0.010693362225538294,,,06,001,moebius,40,f,13,1,alice,2022_Nov_25_1154,CPO_EEG,2020.1.3,143.7247960168008,
stimoli/01.full/F03-Fear-Face Forward.mp4,fear,full,femmina,2,6,720,576,30,,,,,,,,,,,,,,,,,1,0,1,0,,,,,,,,,0,41,41,29,,,0.0015764209765620762,0.0051677100236702245,2297.67414752991,None,0.006142428913335607,0.012498147744736343,56.0,-198.0,1,0,0,2.905970898915257,click_1,0.006142428913335607,None,2303.6981687857738,None,2303.6981687857738,None,0.005429110449767904,0.011093000177424983,2306.6044145560586,None,0.006136655652881018,0.012486601223827165,-104.0,-169.0,1,0,0,5.442783455886456,click_2,0.006136655652881018,None,2307.1061609674957,None,2307.1061609674957,None,2307.1061609674957,None,0.005366246051380585,0.010939367287392088,,,06,001,moebius,40,f,13,1,alice,2022_Nov_25_1154,CPO_EEG,2020.1.3,143.7247960168008,
stimoli/02.subtle/JM1_Sadness.mp4,sad,subtle,maschio,7,10,1646,926,19,,,,,,,,,,,,,,,,,1,0,1,0,,,,,,,,,0,42,42,18,,,0.0059714762419389444,0.009431904708435468,2314.133245900504,None,0.006209142150510161,0.012622272854969196,-184.0,-40.0,1,0,0,2.278729189799378,click_1,0.006209142150510161,None,2324.56017822698,None,2324.56017822698,None,0.005423657926257874,0.011063171663408866,2326.8391405923753,None,0.006122222500380303,0.012522844473096484,-153.0,-106.0,1,0,0,3.0735311380831263,click_2,0.006122222500380303,None,2327.340978734514,None,2327.340978734514,None,2327.340978734514,None,0.0053421907978190575,0.010900237409259717,,,06,001,moebius,40,f,13,1,alice,2022_Nov_25_1154,CPO_EEG,2020.1.3,143.7247960168008,
stimoli/01.full/M02-Disgust-Face Forward.mp4,disgusted,full,maschio,3,6,720,576,39,,,,,,,,,,,,,,,,,1,0,1,0,,,,,,,,,0,43,43,38,,,0.005702057398593752,0.009784073627088219,2331.9998370657463,None,0.006208500678440032,0.012629329064111516,-158.0,102.0,1,0,0,2.013964235289677,click_1,0.006208500678440032,None,2338.025799420236,None,2338.025799420236,None,0.005434883709312999,0.011129564162729366,2340.0400366024746,None,0.006124467657173227,0.012466394809962367,-92.0,166.0,1,0,0,3.9583379038322164,click_2,0.006124467657173227,None,2340.541820540108,None,2340.541820540108,None,2340.541820540108,None,0.00536817047304794,0.0109400087621907,,,06,001,moebius,40,f,13,1,alice,2022_Nov_25_1154,CPO_EEG,2020.1.3,143.7247960168008,
stimoli/02.subtle/JF2_Sadness.mp4,sad,subtle,femmina,6,8,1646,926,18,,,,,,,,,,,,,,,,,1,0,1,0,,,,,,,,,0,44,44,17,,,0.003390187123841315,0.006976344383474498,2346.1006994626373,None,0.0062210094092733925,0.012684175042522838,-192.0,-36.0,1,0,0,2.1255045990437793,click_1,0.0062210094092733925,None,2354.4854196294723,None,2354.4854196294723,None,0.005438091077849094,0.011100056385657808,2356.6111227645447,None,0.006121901763435744,0.012458055655770295,-20.0,-192.0,1,0,0,1.1426428449085506,click_2,0.006121901763435744,None,2357.112896117867,None,2357.112896117867,None,2357.112896117867,None,0.005399602671786852,0.011025324730326247,,,06,001,moebius,40,f,13,1,alice,2022_Nov_25_1154,CPO_EEG,2020.1.3,143.7247960168008,
stimoli/02.subtle/JM2_Happiness.mp4,happy,subtle,maschio,8,10,1646,926,16,,,,,,,,,,,,,,,,,1,0,1,0,,,,,,,,,0,45,45,15,,,0.002801314507451025,0.00614659849088639,2359.8362055306557,None,0.006151088804472238,0.012569030560371175,68.0,18.0,1,0,0,3.6030735558351807,click_1,0.006151088804472238,None,2370.463162425565,None,2370.463162425565,None,0.005443543602268619,0.011145921736897435,2374.0665214370797,None,0.0060763571491406765,0.012421812406500976,104.0,-159.0,1,0,0,1.1288158849347383,click_2,0.0060763571491406765,None,2374.5683012051363,None,2374.5683012051363,None,2374.5683012051363,None,0.005358227634133073,0.010942574655928183,,,06,001,moebius,40,f,13,1,alice,2022_Nov_25_1154,CPO_EEG,2020.1.3,143.7247960168008,
stimoli/02.subtle/JF1_Disgust.mp4,disgusted,subtle,femmina,5,10,1646,926,9,,,,,,,,,,,,,,,,,1,0,1,0,,,,,,,,,0,46,46,8,,,0.0001712734083412215,0.004185934924862522,2377.3015496073863,None,0.006198237102580606,0.012626442433429474,-196.0,-38.0,1,0,0,2.243970310043551,click_1,0.006198237102580606,None,2388.128439660763,None,2388.128439660763,None,0.005439053286863782,0.01112635679601226,2390.372659503974,None,0.006086941461035167,0.012431755244506348,-158.0,-101.0,1,0,0,1.2262143252564783,click_2,0.006086941461035167,None,2390.8744472904477,None,2390.8744472904477,None,2390.8744472904477,None,0.005287665557261789,0.010783809981148806,,,06,001,moebius,40,f,13,1,alice,2022_Nov_25_1154,CPO_EEG,2020.1.3,143.7247960168008,
stimoli/02.subtle/JM1_Happiness.mp4,happy,subtle,maschio,7,10,1646,926,15,,,,,,,,,,,,,,,,,1,0,1,0,,,,,,,,,0,47,47,14,,,0.00010135280354006682,0.0035495932743287995,2393.697682869644,None,0.006197595629600983,0.012629329064111516,177.0,116.0,1,0,0,2.0348031414232537,click_1,0.006197595629600983,None,2404.122518540186,None,2404.122518540186,None,0.005453807176309056,0.011141431421492598,2406.1575875723497,None,0.006129920180683257,0.012507769846706651,183.0,44.0,1,0,0,1.5817532238852436,click_2,0.006129920180683257,None,2406.6594228278586,None,2406.6594228278586,None,2406.6594228278586,None,0.005333210170647362,0.010872974788071588,,,06,001,moebius,40,f,13,1,alice,2022_Nov_25_1154,CPO_EEG,2020.1.3,143.7247960168008,
stimoli/02.subtle/JF1_Happiness.mp4,happy,subtle,femmina,5,10,1646,926,13,,,,,,,,,,,,,,,,,1,0,1,0,,,,,,,,,0,48,48,12,,,0.005457656017824775,0.009015588446345646,2409.8260154043433,None,0.006203368890965066,0.012667817470173759,169.0,108.0,1,0,0,1.5818635573159554,click_1,0.006203368890965066,None,2420.6471450262393,None,2420.6471450262393,None,0.005408262563832977,0.011053549562348053,2422.2292497775693,None,0.006110996714596695,0.012430793034582166,110.0,186.0,1,0,0,1.3308424919696336,click_2,0.006110996714596695,None,2422.7310176783662,None,2422.7310176783662,None,2422.7310176783662,None,0.0053925464635540266,0.011039437144972908,,,06,001,moebius,40,f,13,1,alice,2022_Nov_25_1154,CPO_EEG,2020.1.3,143.7247960168008,
stimoli/02.subtle/JM2_Surprise.mp4,surprised,subtle,maschio,8,10,1646,926,24,,,,,,,,,,,,,,,,,1,0,1,0,,,,,,,,,0,49,49,23,,,0.006175144058033766,0.01011892275982973,2425.646699202199,None,0.006188294263665739,0.012654025790652668,38.0,-192.0,1,0,0,1.9930111468838732,click_1,0.006188294263665739,None,2436.6313551575427,None,2436.6313551575427,None,0.005414035824287566,0.011053549561438558,2438.6245619538254,None,0.006151730278361356,0.012528938470495632,117.0,-164.0,1,0,0,1.3099230809202709,click_2,0.006151730278361356,None,2439.1263548720867,None,2439.1263548720867,None,2439.1263548720867,None,0.0053668875252697035,0.010982025272824103,,,06,001,moebius,40,f,13,1,alice,2022_Nov_25_1154,CPO_EEG,2020.1.3,143.7247960168008,
stimoli/02.subtle/JF2_Surprise.mp4,surprised,subtle,femmina,6,10,1646,926,22,,,,,,,,,,,,,,,,,1,0,1,0,,,,,,,,,0,50,50,21,,,0.0066754933422998874,0.01019365441698028,2442.0199988966656,None,0.00620208594318683,0.012634781587621546,22.0,-91.0,1,0,0,2.601777138014768,click_1,0.00620208594318683,None,2452.4427212329633,None,2452.4427212329633,None,0.005431997080449946,0.01109075502063206,2455.04473282952,None,0.006081168198761588,0.012400323044857942,118.0,-169.0,1,0,0,3.547829863282459,click_2,0.006081168198761588,None,2455.5456581549556,None,2455.5456581549556,None,2455.5456581549556,None,0.005350850689865183,0.010928141503427469,,,06,001,moebius,40,f,13,1,alice,2022_Nov_25_1154,CPO_EEG,2020.1.3,143.7247960168008,
stimoli/01.full/M03-Neutral-Face Forward.mp4,neutral,full,maschio,4,6,720,576,56,,,,,,,,,,,,,,,,,1,0,1,0,,,,,,,,,0,51,51,55,,,0.001448767761758063,0.005057055855104409,2460.673155811974,None,0.006191180894347781,0.012622914328858315,110.0,-164.0,1,0,0,3.4224227682016135,click_1,0.006191180894347781,None,2466.697420507008,None,2466.697420507008,None,0.00540377224842814,0.011016344101335562,2470.120003643569,None,0.006113562608334178,0.012461263022487401,-3.0,1.0,1,0,0,1.142727198666762,click_2,0.006113562608334178,None,2470.6218254281353,None,2470.6218254281353,None,2470.6218254281353,None,0.005389659833781479,0.010986836324264004,,,06,001,moebius,40,f,13,1,alice,2022_Nov_25_1154,CPO_EEG,2020.1.3,143.7247960168008,
stimoli/02.subtle/JM1_Fear.mp4,fear,subtle,maschio,7,10,1646,926,3,,,,,,,,,,,,,,,,,1,0,1,0,,,,,,,,,0,52,52,2,,,0.0008547633578928071,0.00475235597241408,2473.347892214501,None,0.0062001615233384655,0.012627404643353657,-120.0,-163.0,1,0,0,3.0385984190243107,click_1,0.0062001615233384655,None,2483.7711505018565,None,2483.7711505018565,None,0.005434883710222493,0.011102622278485796,2486.810009038361,None,0.006131203128461493,0.012527014049737772,-3.0,2.0,1,0,0,3.8958131670124203,click_2,0.006131203128461493,None,2487.3118407657653,None,2487.3118407657653,None,2487.3118407657653,None,0.005348605532162765,0.010969837277116312,,,06,001,moebius,40,f,13,1,alice,2022_Nov_25_1154,CPO_EEG,2020.1.3,143.7247960168008,
stimoli/01.full/M03-Fear-Face Forward.mp4,fear,full,maschio,4,6,720,576,32,,,,,,,,,,,,,,,,,1,0,1,0,,,,,,,,,0,53,53,31,,,0.0037199044727458386,0.007551104586127622,2492.7878403577884,None,0.006195350471898564,0.012599179811331851,-181.0,118.0,1,0,0,1.972118036244865,click_1,0.006195350471898564,None,2498.8144996731694,None,2498.8144996731694,None,0.005465032962092664,0.011153619418109884,2500.7868884112045,None,0.006131203128461493,0.01250488321602461,-80.0,123.0,1,0,0,4.4321843902571345,click_2,0.006131203128461493,None,2501.28866048158,None,2501.28866048158,None,2501.28866048158,None,0.005347001849258959,0.010901841092163522,,,06,001,moebius,40,f,13,1,alice,2022_Nov_25_1154,CPO_EEG,2020.1.3,143.7247960168008,
stimoli/01.full/M02-Joy-Face Forward.mp4,happy,full,maschio,3,6,720,576,43,,,,,,,,,,,,,,,,,1,0,1,0,,,,,,,,,0,54,54,42,,,0.0013034740286457236,0.004940949163028563,2507.303243418001,None,0.006192463841216522,0.012640234112041071,166.0,126.0,1,0,0,1.672437682459531,click_1,0.006192463841216522,None,2513.3274782845206,None,2513.3274782845206,None,0.005465032961183169,0.011137261843941815,2515.0001436900498,None,0.0060426797936088406,0.01232045960296091,200.0,37.0,1,0,0,1.1914304280362558,click_2,0.0060426797936088406,None,2515.5019494377807,None,2515.5019494377807,None,2515.5019494377807,None,0.005393187935624155,0.011000628001056612,,,06,001,moebius,40,f,13,1,alice,2022_Nov_25_1154,CPO_EEG,2020.1.3,143.7247960168008,
stimoli/02.subtle/JM1_Surprise.mp4,surprised,subtle,maschio,7,10,1646,926,23,,,,,,,,,,,,,,,,,1,0,1,0,,,,,,,,,0,55,55,22,,,0.005524048518054769,0.00944409270232427,2518.2788780116375,None,0.006178992899549485,0.012574162348755635,45.0,-206.0,1,0,0,1.7700189427105215,click_1,0.006178992899549485,None,2528.7027652637003,None,2528.7027652637003,None,0.005453486440273991,0.01116741109672148,2530.473082812296,None,0.006073470518458635,0.012362476112684817,127.0,-152.0,1,0,0,0.912538624719673,click_2,0.006073470518458635,None,2530.9748340347846,None,2530.9748340347846,None,2530.9748340347846,None,0.005414356561232125,0.011055153245251859,,,06,001,moebius,40,f,13,1,alice,2022_Nov_25_1154,CPO_EEG,2020.1.3,143.7247960168008,
,,,,,,,,,,,,,,,,,,,,,,,,,1,0,1,0,,,,,,,,,,,,,,,,,,,,,,,,,,,,,,,,,,,,,,,,,,,,,,,,,,,,,,,,,,,06,001,moebius,40,f,13,1,alice,2022_Nov_25_1154,CPO_EEG,2020.1.3,143.7247960168008,
