file,file_emotion,file_emotion_level,file_gender,file_id,file_duration,size_w,size_h,trigger,loop_practice_full.thisRepN,loop_practice_full.thisTrialN,loop_practice_full.thisN,loop_practice_full.thisIndex,loop_istr_practice.thisRepN,loop_istr_practice.thisTrialN,loop_istr_practice.thisN,loop_istr_practice.thisIndex,tuto.thisRepN,tuto.thisTrialN,tuto.thisN,tuto.thisIndex,loop_practice.thisRepN,loop_practice.thisTrialN,loop_practice.thisN,loop_practice.thisIndex,exp_blocks.thisRepN,exp_blocks.thisTrialN,exp_blocks.thisN,exp_blocks.thisIndex,istr_1.thisRepN,istr_1.thisTrialN,istr_1.thisN,istr_1.thisIndex,istr_2.thisRepN,istr_2.thisTrialN,istr_2.thisN,istr_2.thisIndex,exp.thisRepN,exp.thisTrialN,exp.thisN,exp.thisIndex,img_tutorial.started,img_tutorial.stopped,p_port.started,p_port.stopped,mov_target.started,mov_target.stopped,p_port_2.started,p_port_2.stopped,primary.x,primary.y,primary.leftButton,primary.midButton,primary.rightButton,primary.time,primary.clicked_name,primary.started,primary.stopped,img_primary_wheel.started,img_primary_wheel.stopped,click_1.started,click_1.stopped,p_port_4.started,p_port_4.stopped,txt_iwi.started,txt_iwi.stopped,p_port_3.started,p_port_3.stopped,secondary.x,secondary.y,secondary.leftButton,secondary.midButton,secondary.rightButton,secondary.time,secondary.clicked_name,secondary.started,secondary.stopped,img_secondary_wheel.started,img_secondary_wheel.stopped,click_2.started,click_2.stopped,primary_pos.started,primary_pos.stopped,p_port_5.started,p_port_5.stopped,kb_end_practice.keys,kb_end_practice.rt,participant,session,group,age,sex,education,practice,experimenter,date,expName,psychopyVersion,frameRate,
stimoli/03.practice/F04-Anger-Face Forward.mp4,anger,full,femmina,9,6,700,700,57,0,0,0,0,,,,,,,,,0,0,0,0,,,,,,,,,,,,,,,,,1493.3729234702914,None,0.004045067358674714,0.008723012411792297,1498.2239345286544,None,0.005852098038303666,0.011998375790426508,-30.0,129.0,1,0,0,19.038312001132,click_1,0.005852098038303666,None,1504.2489863115989,None,1504.2489863115989,None,0.004783082546055084,0.00983179924878641,1523.2877851910707,None,0.005871021501661744,0.012019865149341058,-2.0,1.0,1,0,0,7.2889841049291135,click_2,0.005871021501661744,None,1523.7895809959628,None,1523.7895809959628,None,1523.7895809959628,None,0.004671466169384075,0.009579700188623974,,,07_control,001,control,26,f,17,1,filo e ali,2023_Mar_24_1440,CPO_EEG,2020.1.3,144.1594074261375,
stimoli/03.practice/F04-Disgust-Face Forward.mp4,disgust,full,femmina,9,6,700,700,58,0,0,0,0,,,,,,,,,0,1,1,1,,,,,,,,,,,,,,,,,,,0.00018942710812552832,0.005017797680920921,1532.6632444058705,None,0.0061670614923059475,0.012548759998026071,-165.0,115.0,1,0,0,1.679052556562965,click_1,0.0061670614923059475,None,1538.6847940645748,None,1538.6847940645748,None,0.005469779862323776,0.01117472389159957,1540.3641619053305,None,0.006131780453870306,0.012485574865422677,-177.0,108.0,1,0,0,1.5326275842562609,click_2,0.006131780453870306,None,1540.8658454523684,None,1540.8658454523684,None,1540.8658454523684,None,0.005397293363785138,0.011026543528714683,,,07_control,001,control,26,f,17,1,filo e ali,2023_Mar_24_1440,CPO_EEG,2020.1.3,144.1594074261375,
stimoli/03.practice/F04-Surprise-Face Forward.mp4,surprise,full,femmina,9,6,700,700,61,0,0,0,0,,,,,,,,,0,2,2,4,,,,,,,,,,,,,,,,,,,0.0021237902619759552,0.005731757617468247,1543.9796909509241,None,0.006210040213773027,0.012659414165682392,40.0,-188.0,1,0,0,3.6651242437837936,click_1,0.006210040213773027,None,1550.201558972898,None,1550.201558972898,None,0.005461761447804747,0.011162215159856714,1553.8669026005955,None,0.006113498457125388,0.01246729286867776,40.0,-187.0,1,0,0,1.7278042171747074,click_2,0.006113498457125388,None,1554.3686102028914,None,1554.3686102028914,None,1554.3686102028914,None,0.005483571541844867,0.011201345041627064,,,07_control,001,control,26,f,17,1,filo e ali,2023_Mar_24_1440,CPO_EEG,2020.1.3,144.1594074261375,
stimoli/03.practice/F04-Sadness-Face Forward.mp4,sadness,full,femmina,9,6,700,700,60,0,0,0,0,,,,,,,,,0,3,3,3,,,,,,,,,,,,,,,,,,,0.005459067258925643,0.009751807509019272,1557.6820517656233,None,0.006153590547910426,0.012523101060651243,-34.0,-205.0,1,0,0,2.793985352593154,click_1,0.006153590547910426,None,1563.7043602874037,None,1563.7043602874037,None,0.005353993910830468,0.010942831246211426,1566.4986266053675,None,0.006102914150687866,0.012443237621482695,-38.0,-196.0,1,0,0,1.0518746740490315,click_2,0.006102914150687866,None,1567.0003364528166,None,1567.0003364528166,None,1567.0003364528166,None,0.005436102510429919,0.01112436822950258,,,07_control,001,control,26,f,17,1,filo e ali,2023_Mar_24_1440,CPO_EEG,2020.1.3,144.1594074261375,
stimoli/03.practice/F04-Joy-Face Forward.mp4,joy,full,femmina,9,6,700,700,59,0,0,0,0,,,,,,,,,0,4,4,2,,,,,,,,,,,,,,,,,,,0.00417163006568444,0.007842782557418104,1569.6383735184354,None,0.006184702011523768,0.012587248405907303,143.0,24.0,1,0,0,9.302323545089166,click_1,0.006184702011523768,None,1575.6644458856208,None,1575.6644458856208,None,0.005430329249065835,0.011118594968138495,1584.9670350007145,None,0.006118309509474784,0.01247787718239124,120.0,77.0,1,0,0,1.3864216751280765,click_2,0.006118309509474784,None,1585.4687368297455,None,1585.4687368297455,None,1585.4687368297455,None,0.005435461036540801,0.011085559082857799,,,07_control,001,control,26,f,17,1,filo e ali,2023_Mar_24_1440,CPO_EEG,2020.1.3,144.1594074261375,
stimoli/03.practice/F04-Neutral-Face Forward.mp4,neutral,full,femmina,9,6,700,700,62,0,0,0,0,,,,,,,,,0,5,5,5,,,,,,,,,,,,,,,,,,,0.0058404232186148874,0.009621588404115755,1588.439527657447,None,0.006211643896676833,0.012637604071642272,-2.0,2.0,1,0,0,5.77649301339261,click_1,0.006211643896676833,None,1594.4613095295354,None,1594.4613095295354,None,0.005446366081741871,0.011127575591672212,1600.2380283415769,None,0.006110611826443346,0.012492631070927018,4.0,-3.0,1,0,0,1.6025606978219002,click_2,0.006110611826443346,None,1600.7398135621588,None,1600.7398135621588,None,1600.7398135621588,None,0.005395689684519311,0.01105605130942422,,,07_control,001,control,26,f,17,1,filo e ali,2023_Mar_24_1440,CPO_EEG,2020.1.3,144.1594074261375,
,,,,,,,,,0,0,0,0,,,,,,,,,,,,,,,,,,,,,,,,,,,,,,,,,,,,,,,,,,,,,,,,,,,,,,,,,,,,,,,,,,,,,,,,,n,19.193097938241408,07_control,001,control,26,f,17,1,filo e ali,2023_Mar_24_1440,CPO_EEG,2020.1.3,144.1594074261375,
,,,,,,,,,,,,,,,,,,,,,,,,,0,0,0,0,0,0,0,0,,,,,,,,,,,,,,,,,,,,,,,,,,,,,,,,,,,,,,,,,,,,,,,,,,,,,,,07_control,001,control,26,f,17,1,filo e ali,2023_Mar_24_1440,CPO_EEG,2020.1.3,144.1594074261375,
stimoli/02.subtle/JM1_Neutral.mp4,neutral,subtle,maschio,7,10,1646,926,27,,,,,,,,,,,,,,,,,0,0,0,0,,,,,,,,,0,0,0,26,,,0.002395005230937386,0.004712969501269981,1629.7824859789944,None,0.005964035150100244,0.012156819728261326,17.0,91.0,1,0,0,12.114329490264936,click_1,0.005964035150100244,None,1640.210259918622,None,1640.210259918622,None,0.004455289621546399,0.009145101932517719,1652.3250400439792,None,0.005851456560776569,0.011979131584666902,60.0,12.0,1,0,0,3.972277121658408,click_2,0.005851456560776569,None,1652.8268801105369,None,1652.8268801105369,None,1652.8268801105369,None,0.004595130834786687,0.009427991721167928,,,07_control,001,control,26,f,17,1,filo e ali,2023_Mar_24_1440,CPO_EEG,2020.1.3,144.1594074261375,
stimoli/02.subtle/JF2_Neutral.mp4,neutral,subtle,femmina,6,9,1646,926,26,,,,,,,,,,,,,,,,,0,0,0,0,,,,,,,,,0,1,1,25,,,0.006625650858040899,0.01068874361953931,1658.4109413558544,None,0.006222548945515882,0.012662621535127982,-181.0,32.0,1,0,0,3.407758043918875,click_1,0.006222548945515882,None,1667.914234680491,None,1667.914234680491,None,0.005445083137601614,0.011146819801069796,1671.3222332769474,None,0.006139157398138195,0.01253464758337941,-47.0,84.0,1,0,0,3.70055346328445,click_2,0.006139157398138195,None,1671.8240316477313,None,1671.8240316477313,None,1671.8240316477313,None,0.0053725966390629765,0.010958868082525441,,,07_control,001,control,26,f,17,1,filo e ali,2023_Mar_24_1440,CPO_EEG,2020.1.3,144.1594074261375,
stimoli/01.full/M03-Surprise-Face Forward.mp4,surprised,full,maschio,4,6,720,576,52,,,,,,,,,,,,,,,,,0,0,0,0,,,,,,,,,0,2,2,51,,,0.006042166613042355,0.009669057435530704,1677.1088086491145,None,0.0062020217956160195,0.012647867646592204,27.0,-143.0,1,0,0,5.247729665130464,click_1,0.0062020217956160195,None,1683.1311319247834,None,1683.1311319247834,None,0.005412047252320917,0.011071767403336708,1688.3790992558243,None,0.006124724248365965,0.012486857816838892,32.0,-145.0,1,0,0,1.8325885826707236,click_2,0.006124724248365965,None,1688.8808241779006,None,1688.8808241779006,None,1688.8808241779006,None,0.005415254621766508,0.011041297417250462,,,07_control,001,control,26,f,17,1,filo e ali,2023_Mar_24_1440,CPO_EEG,2020.1.3,144.1594074261375,
stimoli/01.full/M02-Surprise-Face Forward.mp4,surprised,full,maschio,3,6,720,576,51,,,,,,,,,,,,,,,,,0,0,0,0,,,,,,,,,0,3,3,50,,,0.004059500512084924,0.008042409092013258,1692.4220372426644,None,0.00619464485134813,0.012604247451236006,46.0,-210.0,1,0,0,1.3727403296288685,click_1,0.00619464485134813,None,1698.4446453325436,None,1698.4446453325436,None,0.0054736287020205054,0.011177931257407181,1699.817654118804,None,0.0061125362481107,0.012448690140445251,-37.0,-53.0,1,0,0,4.530061369761825,click_2,0.0061125362481107,None,1700.3194018131871,None,1700.3194018131871,None,1700.3194018131871,None,0.005359446433431003,0.010994790594850201,,,07_control,001,control,26,f,17,1,filo e ali,2023_Mar_24_1440,CPO_EEG,2020.1.3,144.1594074261375,
stimoli/01.full/M02-Sadness-Face Forward.mp4,sad,full,maschio,3,6,720,576,47,,,,,,,,,,,,,,,,,0,0,0,0,,,,,,,,,0,4,4,46,,,0.006212798547494458,0.010207574388914509,1706.434176806757,None,0.00619464485134813,0.012664545953157358,-20.0,-141.0,1,0,0,10.79531352335107,click_1,0.00619464485134813,None,1712.0976460490674,None,1712.0976460490674,None,0.005442517242045142,0.011133990326925414,1722.893176711179,None,0.006131780457508285,0.012485895604186226,-51.0,-34.0,1,0,0,11.785005686662771,click_2,0.006131780457508285,None,1723.3949462156597,None,1723.3949462156597,None,1723.3949462156597,None,0.005086499484605156,0.010437991648359457,,,07_control,001,control,26,f,17,1,filo e ali,2023_Mar_24_1440,CPO_EEG,2020.1.3,144.1594074261375,
stimoli/02.subtle/JM1_Surprise.mp4,surprised,subtle,maschio,7,10,1646,926,23,,,,,,,,,,,,,,,,,0,0,0,0,,,,,,,,,0,5,5,22,,,0.004693468708865112,0.00810578666641959,1736.7652450973765,None,0.006206832844327437,0.012626057548914105,2.0,2.0,1,0,0,13.082353963760397,click_1,0.006206832844327437,None,1747.1861584785765,None,1747.1861584785765,None,0.0054335366148734465,0.011099992239905987,1760.268741769094,None,0.006133704871899681,0.012502894649514928,1.0,0.0,1,0,0,0.487543548028043,click_2,0.006133704871899681,None,1760.7705738172335,None,1760.7705738172335,None,1760.7705738172335,None,0.005398255576437805,0.011030713107174961,,,07_control,001,control,26,f,17,1,filo e ali,2023_Mar_24_1440,CPO_EEG,2020.1.3,144.1594074261375,
stimoli/02.subtle/JM2_Disgust.mp4,disgusted,subtle,maschio,8,10,1646,926,12,,,,,,,,,,,,,,,,,0,0,0,0,,,,,,,,,0,6,6,11,,,0.006296190094872145,0.010342283811041852,1762.876683146118,None,0.006201380318088923,0.012636962594115175,-173.0,-126.0,1,0,0,1.8467224876840191,click_1,0.006201380318088923,None,1773.4971271612012,None,1773.4971271612012,None,0.005485495963512221,0.011218664825719316,1775.3441261239386,None,0.006120233931142138,0.012491027388023213,-16.0,-133.0,1,0,0,1.5260999505444488,click_2,0.006120233931142138,None,1775.845886968531,None,1775.845886968531,None,1775.845886968531,None,0.005359125694667455,0.010953415552648949,,,07_control,001,control,26,f,17,1,filo e ali,2023_Mar_24_1440,CPO_EEG,2020.1.3,144.1594074261375,
stimoli/02.subtle/JF1_Surprise.mp4,surprised,subtle,femmina,5,10,1646,926,21,,,,,,,,,,,,,,,,,0,0,0,0,,,,,,,,,0,7,7,20,,,0.004616812639142154,0.008583363647630904,1778.9581258968574,None,0.0061375537152343895,0.012497121388150845,-60.0,83.0,1,0,0,12.46170980896568,click_1,0.0061375537152343895,None,1789.7836040671973,None,1789.7836040671973,None,0.005411726517195348,0.011058296462579165,1802.2455919548956,None,0.006118309509474784,0.012472424659790704,0.0,0.0,1,0,0,3.268659339759324,click_2,0.006118309509474784,None,1802.7474371532408,None,1802.7474371532408,None,1802.7474371532408,None,0.005333787496056175,0.010893117054365575,,,07_control,001,control,26,f,17,1,filo e ali,2023_Mar_24_1440,CPO_EEG,2020.1.3,144.1594074261375,
stimoli/01.full/F01-Surprise-Face Forward.mp4,surprised,full,femmina,1,6,720,576,49,,,,,,,,,,,,,,,,,0,0,0,0,,,,,,,,,0,8,8,48,,,0.0006336474652925972,0.0050197221025882754,1807.5999377129265,None,0.006229284415894654,0.012705279517831514,26.0,-139.0,1,0,0,7.624257895415212,click_1,0.006229284415894654,None,1813.6250164377561,None,1813.6250164377561,None,0.005436102510429919,0.011093577504652785,1821.2494372674228,None,0.006124082770838868,0.012485895600548247,28.0,-132.0,1,0,0,1.268078806293488,click_2,0.006124082770838868,None,1821.751218639165,None,1821.751218639165,None,1821.751218639165,None,0.005389274945628131,0.011034882678359281,,,07_control,001,control,26,f,17,1,filo e ali,2023_Mar_24_1440,CPO_EEG,2020.1.3,144.1594074261375,
stimoli/02.subtle/JF2_Surprise.mp4,surprised,subtle,femmina,6,10,1646,926,22,,,,,,,,,,,,,,,,,0,0,0,0,,,,,,,,,0,9,9,21,,,0.002782840070722159,0.006320886823232286,1824.606775178312,None,0.006209078001120361,0.0126674325838394,-78.0,112.0,1,0,0,10.774823578769428,click_1,0.006209078001120361,None,1835.0287806680426,None,1835.0287806680426,None,0.005431932931969641,0.011097747079475084,1845.8037880289485,None,0.0061138191958889365,0.012468255081330426,-50.0,38.0,1,0,0,6.175201470770844,click_2,0.0061138191958889365,None,1846.3056588862346,None,1846.3056588862346,None,1846.3056588862346,None,0.005362974534364184,0.010993828382197535,,,07_control,001,control,26,f,17,1,filo e ali,2023_Mar_24_1440,CPO_EEG,2020.1.3,144.1594074261375,
stimoli/01.full/M03-Disgust-Face Forward.mp4,disgusted,full,maschio,4,6,720,576,40,,,,,,,,,,,,,,,,,0,0,0,0,,,,,,,,,0,10,10,39,,,0.004703283255366841,0.00867753194324905,1854.0805947228546,None,0.006225435576197924,0.012675771740759956,-158.0,93.0,1,0,0,1.1706396324116213,click_1,0.006225435576197924,None,1860.1051086303196,None,1860.1051086303196,None,0.0054736287020205054,0.011176648309628945,1861.2759532134914,None,0.006108045934524853,0.012465368450648384,-159.0,98.0,1,0,0,1.177433798337006,click_2,0.006108045934524853,None,1861.7777227179722,None,1861.7777227179722,None,1861.7777227179722,None,0.005416537565906765,0.01107080519432202,,,07_control,001,control,26,f,17,1,filo e ali,2023_Mar_24_1440,CPO_EEG,2020.1.3,144.1594074261375,
stimoli/01.full/M02-Neutral-Face Forward.mp4,neutral,full,maschio,3,6,720,576,55,,,,,,,,,,,,,,,,,0,0,0,0,,,,,,,,,0,11,11,54,,,0.004667809775128262,0.00852434808621183,1864.5410918262787,None,0.006203946217283374,0.012649792064621579,0.0,0.0,1,0,0,4.028059010423021,click_1,0.006203946217283374,None,1870.5674955144968,None,1870.5674955144968,None,0.005412367991084466,0.01104578773083631,1874.595725477593,None,0.006173155485157622,0.012587248402269324,0.0,0.0,1,0,0,0.6617218686624255,click_2,0.006173155485157622,None,1875.09755207321,None,1875.09755207321,None,1875.09755207321,None,0.005405311785580125,0.011044825521821622,,,07_control,001,control,26,f,17,1,filo e ali,2023_Mar_24_1440,CPO_EEG,2020.1.3,144.1594074261375,
stimoli/02.subtle/JM2_Fear.mp4,fear,subtle,maschio,8,10,1646,926,4,,,,,,,,,,,,,,,,,0,0,0,0,,,,,,,,,0,12,12,3,,,0.0037771239040012006,0.0071567267150385305,1877.3455867589619,None,0.006245962726097787,0.012742164239170961,-36.0,-54.0,1,0,0,5.3943098740091955,click_1,0.006245962726097787,None,1887.9724618660075,None,1887.9724618660075,None,0.005442517242045142,0.01112084012129344,1893.3669462207909,None,0.006049671854270855,0.012338677446678048,0.0,7.0,1,0,0,1.2472107131216035,click_2,0.006049671854270855,None,1893.868809701129,None,1893.868809701129,None,1893.868809701129,None,0.005376445478759706,0.011015317744750064,,,07_control,001,control,26,f,17,1,filo e ali,2023_Mar_24_1440,CPO_EEG,2020.1.3,144.1594074261375,
stimoli/02.subtle/JF1_Neutral.mp4,neutral,subtle,femmina,5,10,1646,926,25,,,,,,,,,,,,,,,,,0,0,0,0,,,,,,,,,0,13,13,24,,,0.0024267581720778253,0.006398440968041541,1896.7114129671281,None,0.006202663265867159,0.012643698064493947,-30.0,53.0,1,0,0,3.7772380847891327,click_1,0.006202663265867159,None,1907.5323661838302,None,1907.5323661838302,None,0.005454063764773309,0.011075295507907867,1911.3097867678116,None,0.0061096496174286585,0.012460878137062537,5.0,-1.0,1,0,0,0.7941524564266729,click_2,0.0061096496174286585,None,1911.8115931570173,None,1911.8115931570173,None,1911.8115931570173,None,0.005398897050326923,0.011029109424271155,,,07_control,001,control,26,f,17,1,filo e ali,2023_Mar_24_1440,CPO_EEG,2020.1.3,144.1594074261375,
stimoli/01.full/F01-Anger-Face Forward.mp4,angry,full,femmina,1,6,720,576,33,,,,,,,,,,,,,,,,,0,0,0,0,,,,,,,,,0,14,14,32,,,0.004469273742870428,0.008079165520030074,1914.1916626414204,None,0.006220624523848528,0.012657169008889468,-42.0,188.0,1,0,0,1.1985187095342553,click_1,0.006220624523848528,None,1920.2183591622597,None,1920.2183591622597,None,0.005425838935479987,0.011083634668466402,1921.4170655027774,None,0.006120554669905687,0.012479480868933024,-41.0,196.0,1,0,0,1.170452322163328,click_2,0.006120554669905687,None,1921.9188831177635,None,1921.9188831177635,None,1921.9188831177635,None,0.005394727475504624,0.011058296466217143,,,07_control,001,control,26,f,17,1,filo e ali,2023_Mar_24_1440,CPO_EEG,2020.1.3,144.1594074261375,
stimoli/02.subtle/JF1_Disgust.mp4,disgusted,subtle,femmina,5,10,1646,926,9,,,,,,,,,,,,,,,,,0,0,0,0,,,,,,,,,0,15,15,8,,,0.004617774840880884,0.008185650109226117,1924.675095948387,None,0.006195286321599269,0.012638566277018981,-173.0,103.0,1,0,0,1.7003603797784308,click_1,0.006195286321599269,None,1935.5001671038299,None,1935.5001671038299,None,0.00538574684469495,0.010988375859597,1937.2007086998528,None,0.006141723290056689,0.012536572001408786,-176.0,112.0,1,0,0,1.7491569435333076,click_2,0.006141723290056689,None,1937.7024663370757,None,1937.7024663370757,None,1937.7024663370757,None,0.005368427064240677,0.010966886500682449,,,07_control,001,control,26,f,17,1,filo e ali,2023_Mar_24_1440,CPO_EEG,2020.1.3,144.1594074261375,
stimoli/01.full/F01-Neutral-Face Forward.mp4,neutral,full,femmina,1,6,720,576,53,,,,,,,,,,,,,,,,,0,0,0,0,,,,,,,,,0,16,16,52,,,0.006554383155162213,0.010630626122292597,1941.0360033382276,None,0.0061712310707662255,0.012560306520754239,16.0,64.0,1,0,0,2.696855689646327,click_1,0.0061712310707662255,None,1947.0615086428916,None,1947.0615086428916,None,0.005478119019244332,0.011198458410945022,1949.7586610140024,None,0.006088160254876129,0.012419182359735714,-1.0,6.0,1,0,0,1.3795598337528645,click_2,0.006088160254876129,None,1950.2604202549082,None,1950.2604202549082,None,1950.2604202549082,None,0.005396331154770451,0.011024298371921759,,,07_control,001,control,26,f,17,1,filo e ali,2023_Mar_24_1440,CPO_EEG,2020.1.3,144.1594074261375,
stimoli/01.full/F03-Anger-Face Forward.mp4,angry,full,femmina,2,6,720,576,34,,,,,,,,,,,,,,,,,0,0,0,0,,,,,,,,,0,17,17,33,,,0.006037355567968916,0.009685415014246246,1953.2243325629242,None,0.006205549896549201,0.012626699019165244,-18.0,103.0,1,0,0,9.617398619935557,click_1,0.006205549896549201,None,1959.2498975246162,None,1959.2498975246162,None,0.005447969768283656,0.011113142441899981,1968.8675341311973,None,0.006110932565206895,0.012452859718905529,-50.0,-80.0,1,0,0,3.0382391939019726,click_2,0.006110932565206895,None,1969.3693366715597,None,1969.3693366715597,None,1969.3693366715597,None,0.005375804004870588,0.01100216753911809,,,07_control,001,control,26,f,17,1,filo e ali,2023_Mar_24_1440,CPO_EEG,2020.1.3,144.1594074261375,
stimoli/02.subtle/JM1_Fear.mp4,fear,subtle,maschio,7,10,1646,926,3,,,,,,,,,,,,,,,,,0,0,0,0,,,,,,,,,0,18,18,2,,,0.005715656632673927,0.009113541436818196,1973.992022315575,None,0.006146213610918494,0.012513158228102839,-114.0,-181.0,1,0,0,3.303274850200978,click_1,0.006146213610918494,None,1984.4192907741344,None,1984.4192907741344,None,0.005430970722954953,0.01112757559531019,1987.7228844366327,None,0.006107725199399283,0.012486857809562935,-121.0,-174.0,1,0,0,1.0869270279072225,click_2,0.006107725199399283,None,1988.224706221201,None,1988.224706221201,None,1988.224706221201,None,0.005415254625404486,0.011062466044677421,,,07_control,001,control,26,f,17,1,filo e ali,2023_Mar_24_1440,CPO_EEG,2020.1.3,144.1594074261375,
stimoli/02.subtle/JM2_Sadness.mp4,sad,subtle,maschio,8,10,1646,926,20,,,,,,,,,,,,,,,,,0,0,0,0,,,,,,,,,0,19,19,19,,,0.0037328622383938637,0.007366488531260984,1990.8984816965167,None,0.006203304739756277,0.012661338587349746,-25.0,-135.0,1,0,0,13.75093895674945,click_1,0.006203304739756277,None,2001.5191867912908,None,2001.5191867912908,None,0.005431932928331662,0.011132065908896038,2015.2703698286787,None,0.006114781408541603,0.012503215384640498,67.0,-11.0,1,0,0,1.3308983001625165,click_2,0.006114781408541603,None,2015.7721659543095,None,2015.7721659543095,None,2015.7721659543095,None,0.005391840841184603,0.011018845845683245,,,07_control,001,control,26,f,17,1,filo e ali,2023_Mar_24_1440,CPO_EEG,2020.1.3,144.1594074261375,
stimoli/01.full/F03-Joy-Face Forward.mp4,happy,full,femmina,2,6,720,576,42,,,,,,,,,,,,,,,,,0,0,0,0,,,,,,,,,0,20,20,41,,,0.001379616922349669,0.005273360697174212,2018.6924141275522,None,0.006157760130008683,0.012553571050375467,177.0,114.0,1,0,0,2.2019916467324947,click_1,0.006157760130008683,None,2024.714422439767,None,2024.714422439767,None,0.005464006604597671,0.011163818846398499,2026.916682222396,None,0.00612664866639534,0.012503215384640498,174.0,110.0,1,0,0,0.9404799247677147,click_2,0.00612664866639534,None,2027.4184956678073,None,2027.4184956678073,None,2027.4184956678073,None,0.0054110850469442084,0.011054768361645984,,,07_control,001,control,26,f,17,1,filo e ali,2023_Mar_24_1440,CPO_EEG,2020.1.3,144.1594074261375,
stimoli/02.subtle/JF1_Fear.mp4,fear,subtle,femmina,5,10,1646,926,1,,,,,,,,,,,,,,,,,0,0,0,0,,,,,,,,,0,21,21,0,,,0.004755563339131186,0.008357757433259394,2029.9581217272826,None,0.006198814429808408,0.012635358914849348,-87.0,-119.0,1,0,0,8.565694257078576,click_1,0.006198814429808408,None,2040.784401097946,None,2040.784401097946,None,0.005440592820377788,0.011115708333818475,2049.3503128145203,None,0.00612344129694975,0.012487178544688504,-52.0,38.0,1,0,0,2.1952366106852423,click_2,0.00612344129694975,None,2049.8521474285553,None,2049.8521474285553,None,2049.8521474285553,None,0.0053430888619914185,0.010922945566562703,,,07_control,001,control,26,f,17,1,filo e ali,2023_Mar_24_1440,CPO_EEG,2020.1.3,144.1594074261375,
stimoli/02.subtle/JF2_Anger.mp4,angry,subtle,femmina,6,9,1646,926,6,,,,,,,,,,,,,,,,,0,0,0,0,,,,,,,,,0,22,22,5,,,0.006287466057983693,0.010155550895433407,2053.638641654332,None,0.006203625478519825,0.012626699019165244,-43.0,199.0,1,0,0,1.2195147766615264,click_1,0.006203625478519825,None,2063.1398287009324,None,2063.1398287009324,None,0.005419103461463237,0.011104482549853856,2064.359603274337,None,0.006099386042478727,0.012437785091606202,-3.0,0.0,1,0,0,9.652853177634825,click_2,0.006099386042478727,None,2064.8613387807236,None,2064.8613387807236,None,2064.8613387807236,None,0.005426159670605557,0.011084276135079563,,,07_control,001,control,26,f,17,1,filo e ali,2023_Mar_24_1440,CPO_EEG,2020.1.3,144.1594074261375,
stimoli/01.full/M03-Joy-Face Forward.mp4,happy,full,maschio,4,6,720,576,44,,,,,,,,,,,,,,,,,0,0,0,0,,,,,,,,,0,23,23,43,,,0.005715977371437475,0.009495859609160107,2076.0991108536655,None,0.006186305694427574,0.012600077872775728,180.0,113.0,1,0,0,1.7142367332053254,click_1,0.006186305694427574,None,2082.1216246469485,None,2082.1216246469485,None,0.005438026932097273,0.011086521295510465,2083.8361134792176,None,0.006140440345916431,0.012526629165222403,192.0,27.0,1,0,0,0.9823354251784622,click_2,0.006140440345916431,None,2084.337924679472,None,2084.337924679472,None,2084.337924679472,None,0.005400821468356298,0.011060541619372088,,,07_control,001,control,26,f,17,1,filo e ali,2023_Mar_24_1440,CPO_EEG,2020.1.3,144.1594074261375,
stimoli/02.subtle/JF1_Sadness.mp4,sad,subtle,femmina,5,10,1646,926,17,,,,,,,,,,,,,,,,,0,0,0,0,,,,,,,,,0,24,24,16,,,0.002516628592275083,0.006216326652065618,2086.9081066847284,None,0.0062084365272312425,0.01264594322128687,-44.0,-202.0,1,0,0,3.8678760365401104,click_1,0.0062084365272312425,None,2097.733979040495,None,2097.733979040495,None,0.005540983416722156,0.011341827725118492,2101.6022001897472,None,0.006076293000660371,0.012426238572516013,-35.0,-54.0,1,0,0,3.345243891406426,click_2,0.006076293000660371,None,2102.104037369674,None,2102.104037369674,None,2102.104037369674,None,0.005377728426537942,0.010987092911818763,,,07_control,001,control,26,f,17,1,filo e ali,2023_Mar_24_1440,CPO_EEG,2020.1.3,144.1594074261375,
stimoli/02.subtle/JM1_Anger.mp4,angry,subtle,maschio,7,10,1646,926,7,,,,,,,,,,,,,,,,,0,0,0,0,,,,,,,,,0,25,25,6,,,0.002090690231852932,0.005998867156449705,2107.038028149138,None,0.006203946217283374,0.01263792481040582,-41.0,203.0,1,0,0,1.7281682533503044,click_1,0.006203946217283374,None,2117.4644735972724,None,2117.4644735972724,None,0.005484533750859555,0.011178572731296299,2119.192878554324,None,0.0061301767709665,0.012510913067671936,-79.0,-62.0,1,0,0,1.8047563331056153,click_2,0.0061301767709665,None,2119.6947314503523,None,2119.6947314503523,None,2119.6947314503523,None,0.005406915464845952,0.011043863309168955,,,07_control,001,control,26,f,17,1,filo e ali,2023_Mar_24_1440,CPO_EEG,2020.1.3,144.1594074261375,
stimoli/01.full/M02-Joy-Face Forward.mp4,happy,full,maschio,3,6,720,576,43,,,,,,,,,,,,,,,,,0,0,0,0,,,,,,,,,0,26,26,42,,,0.005396844335336937,0.009059336935024476,2123.084443242751,None,0.00617315549243358,0.012554212524264585,113.0,76.0,1,0,0,4.676224300168542,click_1,0.00617315549243358,None,2129.1069470931943,None,2129.1069470931943,None,0.0054547052350244485,0.011131103696243372,2133.7834571697786,None,0.0060984238334640395,0.012437143617717084,4.0,7.0,1,0,0,2.097412552735477,click_2,0.0060984238334640395,None,2134.285257464984,None,2134.285257464984,None,2134.285257464984,None,0.005389916423155228,0.01101339332308271,,,07_control,001,control,26,f,17,1,filo e ali,2023_Mar_24_1440,CPO_EEG,2020.1.3,144.1594074261375,
stimoli/02.subtle/JM2_Happiness.mp4,happy,subtle,maschio,8,10,1646,926,16,,,,,,,,,,,,,,,,,0,0,0,0,,,,,,,,,0,27,27,15,,,0.0029624526323459577,0.0062503247427230235,2137.969748754098,None,0.0061956070640007965,0.012658451956667705,22.0,-99.0,1,0,0,6.35624644382915,click_1,0.0061956070640007965,None,2148.596863130737,None,2148.596863130737,None,0.005439951350126648,0.011114746128441766,2154.953313242386,None,0.0061025934119243175,0.012453501192794647,54.0,34.0,1,0,0,3.1292402196158946,click_2,0.0061025934119243175,None,2155.4551218767447,None,2155.4551218767447,None,2155.4551218767447,None,0.005381898001360241,0.01099543206510134,,,07_control,001,control,26,f,17,1,filo e ali,2023_Mar_24_1440,CPO_EEG,2020.1.3,144.1594074261375,
stimoli/01.full/F03-Disgust-Face Forward.mp4,disgusted,full,femmina,2,6,720,576,38,,,,,,,,,,,,,,,,,0,0,0,0,,,,,,,,,0,28,28,37,,,0.005973785548121668,0.010235414338239934,2160.1762807498308,None,0.006205870635312749,0.012662621535127982,-175.0,111.0,1,0,0,1.2751231468610058,click_1,0.006205870635312749,None,2166.1993789254157,None,2166.1993789254157,None,0.0055092304792196956,0.011260039857006632,2167.4747573787063,None,0.006125686453742674,0.012517648534412729,-162.0,112.0,1,0,0,1.1496368298139714,click_2,0.006125686453742674,None,2167.9765502969676,None,2167.9765502969676,None,2167.9765502969676,None,0.005393444524088409,0.01100954448338598,,,07_control,001,control,26,f,17,1,filo e ali,2023_Mar_24_1440,CPO_EEG,2020.1.3,144.1594074261375,
stimoli/02.subtle/JM1_Sadness.mp4,sad,subtle,maschio,7,10,1646,926,19,,,,,,,,,,,,,,,,,0,0,0,0,,,,,,,,,0,29,29,18,,,0.0029736784199485555,0.006277908105403185,2170.7131943388667,None,0.006213568318344187,0.012655886064749211,-141.0,-35.0,1,0,0,2.9129818828660063,click_1,0.006213568318344187,None,2181.1380322545665,None,2181.1380322545665,None,0.005450856395327719,0.011133348853036296,2184.051229993245,None,0.006011504185153171,0.012243739380210172,-53.0,-40.0,1,0,0,1.5327443324204069,click_2,0.006011504185153171,None,2184.5530517778097,None,2184.5530517778097,None,2184.5530517778097,None,0.005380294318456436,0.01102814720798051,,,07_control,001,control,26,f,17,1,filo e ali,2023_Mar_24_1440,CPO_EEG,2020.1.3,144.1594074261375,
stimoli/01.full/M03-Sadness-Face Forward.mp4,sad,full,maschio,4,6,720,576,48,,,,,,,,,,,,,,,,,0,0,0,0,,,,,,,,,0,30,30,47,,,0.002016022721363697,0.005633612181554781,2187.667514373814,None,0.006154873499326641,0.012559344311739551,-30.0,-140.0,1,0,0,3.045418885361869,click_1,0.006154873499326641,None,2193.6910493928117,None,2193.6910493928117,None,0.005315505499311257,0.010856232329388149,2196.736667776415,None,0.006116385091445409,0.01247402834269451,-37.0,-58.0,1,0,0,6.600422666848317,click_2,0.006116385091445409,None,2197.238508805185,None,2197.238508805185,None,2197.238508805185,None,0.005329617917595897,0.010925190723355627,,,07_control,001,control,26,f,17,1,filo e ali,2023_Mar_24_1440,CPO_EEG,2020.1.3,144.1594074261375,
stimoli/01.full/M02-Fear-Face Forward.mp4,fear,full,maschio,3,6,720,576,31,,,,,,,,,,,,,,,,,0,0,0,0,,,,,,,,,0,31,31,30,,,0.006183932247949997,0.010463201557286084,2205.4239703228704,None,0.006176362858241191,0.01257057009570417,-127.0,-166.0,1,0,0,2.703946537036245,click_1,0.006176362858241191,None,2211.4461236080824,None,2211.4461236080824,None,0.005431612193206092,0.01107818213858991,2214.1503132635517,None,0.0061215168789203744,0.01246280255872989,-108.0,-169.0,1,0,0,0.9614224288634432,click_2,0.0061215168789203744,None,2214.6521065025518,None,2214.6521065025518,None,2214.6521065025518,None,0.0053831809491384774,0.011000243113812758,,,07_control,001,control,26,f,17,1,filo e ali,2023_Mar_24_1440,CPO_EEG,2020.1.3,144.1594074261375,
stimoli/02.subtle/JM2_Anger.mp4,angry,subtle,maschio,8,10,1646,926,8,,,,,,,,,,,,,,,,,0,0,0,0,,,,,,,,,0,32,32,7,,,0.0010909538796113338,0.004569664339214796,2217.2026616657386,None,0.006219020840944722,0.012654282378207427,-28.0,141.0,1,0,0,2.3554041892057285,click_1,0.006219020840944722,None,2228.186560682425,None,2228.186560682425,None,0.0054713835488655604,0.011156121163367061,2230.5421919532273,None,0.006122158349171514,0.012504177593655186,-182.0,30.0,1,0,0,3.519189998656657,click_2,0.006122158349171514,None,2231.0440163036874,None,2231.0440163036874,None,2231.0440163036874,None,0.005395689680881333,0.011036486364901066,,,07_control,001,control,26,f,17,1,filo e ali,2023_Mar_24_1440,CPO_EEG,2020.1.3,144.1594074261375,
stimoli/02.subtle/JM1_Disgust.mp4,disgusted,subtle,maschio,7,10,1646,926,11,,,,,,,,,,,,,,,,,0,0,0,0,,,,,,,,,0,33,33,10,,,0.003221928640414262,0.006826688630098943,2236.15035463859,None,0.006176042119477643,0.012623491653357632,-122.0,73.0,1,0,0,4.3837348636334355,click_1,0.006176042119477643,None,2246.5717911413776,None,2246.5717911413776,None,0.005422631569672376,0.011061824567150325,2250.955728710618,None,0.006117026565334527,0.012476914973376552,-159.0,-30.0,1,0,0,1.7281753095558088,click_2,0.006117026565334527,None,2251.457594436113,None,2251.457594436113,None,2251.457594436113,None,0.0053879920014878735,0.011042901103792246,,,07_control,001,control,26,f,17,1,filo e ali,2023_Mar_24_1440,CPO_EEG,2020.1.3,144.1594074261375,
stimoli/01.full/M03-Anger-Face Forward.mp4,angry,full,maschio,4,6,720,576,36,,,,,,,,,,,,,,,,,0,0,0,0,,,,,,,,,0,34,34,35,,,0.0007629043611814268,0.005027099046856165,2254.7694547668216,None,0.00619817295591929,0.012650754277274245,-33.0,198.0,1,0,0,1.4632496659542085,click_1,0.00619817295591929,None,2260.7940209543704,None,2260.7940209543704,None,0.005462723656819435,0.011176327578141354,2262.257510531388,None,0.006124403509602416,0.012478839391405927,-39.0,201.0,1,0,0,1.240056039117917,click_2,0.006124403509602416,None,2262.7593878034095,None,2262.7593878034095,None,2262.7593878034095,None,0.005494155855558347,0.011220589243748691,,,07_control,001,control,26,f,17,1,filo e ali,2023_Mar_24_1440,CPO_EEG,2020.1.3,144.1594074261375,
stimoli/01.full/F01-Joy-Face Forward.mp4,happy,full,femmina,1,6,720,576,41,,,,,,,,,,,,,,,,,0,0,0,0,,,,,,,,,0,35,35,40,,,0.00030040201454539783,0.004065209624968702,2265.5830518868606,None,0.006170268861751538,0.01260969997747452,171.0,114.0,1,0,0,1.602705991554103,click_1,0.006170268861751538,None,2271.6046156579796,None,2271.6046156579796,None,0.005438989137473982,0.011107689919299446,2273.207533335768,None,0.006104197098466102,0.012455104879336432,171.0,126.0,1,0,0,0.9265506497795286,click_2,0.006104197098466102,None,2273.7093236881374,None,2273.7093236881374,None,2273.7093236881374,None,0.0053004308756499086,0.010817102451255778,,,07_control,001,control,26,f,17,1,filo e ali,2023_Mar_24_1440,CPO_EEG,2020.1.3,144.1594074261375,
stimoli/01.full/F01-Disgust-Face Forward.mp4,disgusted,full,femmina,1,6,720,576,37,,,,,,,,,,,,,,,,,0,0,0,0,,,,,,,,,0,36,36,36,,,0.0010393794182164129,0.004649271195376059,2276.218453458856,None,0.006200418112712214,0.012665828900935594,-175.0,102.0,1,0,0,1.512025381820422,click_1,0.006200418112712214,None,2282.2395540861507,None,2282.2395540861507,None,0.005567925301875221,0.011381599077139981,2283.751897959537,None,0.006143647715362022,0.012514441172243096,-166.0,92.0,1,0,0,1.2193095051625278,click_2,0.006143647715362022,None,2284.2536347488713,None,2284.2536347488713,None,2284.2536347488713,None,0.005396010419644881,0.011094860448793042,,,07_control,001,control,26,f,17,1,filo e ali,2023_Mar_24_1440,CPO_EEG,2020.1.3,144.1594074261375,
stimoli/02.subtle/JF2_Fear.mp4,fear,subtle,femmina,6,10,1646,926,2,,,,,,,,,,,,,,,,,0,0,0,0,,,,,,,,,0,37,37,1,,,0.005290937071549706,0.008871962541888934,2287.0648308338314,None,0.006208436530869221,0.012679941319220234,26.0,-199.0,1,0,0,4.160559518793889,click_1,0.006208436530869221,None,2297.485807720903,None,2297.485807720903,None,0.005460157761262963,0.011135914748592768,2301.6465773222444,None,0.00611285698323627,0.012487820018577622,-75.0,-131.0,1,0,0,1.1984317898823065,click_2,0.00611285698323627,None,2302.148397503126,None,2302.148397503126,None,2302.148397503126,None,0.005430970719316974,0.01107465403401875,,,07_control,001,control,26,f,17,1,filo e ali,2023_Mar_24_1440,CPO_EEG,2020.1.3,144.1594074261375,
stimoli/01.full/M02-Disgust-Face Forward.mp4,disgusted,full,maschio,3,6,720,576,39,,,,,,,,,,,,,,,,,0,0,0,0,,,,,,,,,0,38,38,38,,,6.947157453396358e-05,0.0037630756341968663,2304.930536765729,None,0.006207153579453006,0.012652037221414503,-168.0,99.0,1,0,0,1.2751808794710087,click_1,0.006207153579453006,None,2310.95557411552,None,2310.95557411552,None,0.005482930067955749,0.011227003975363914,2312.2310218479433,None,0.0061314597114687786,0.012485574861784698,-35.0,54.0,1,0,0,2.8014325384829135,click_2,0.0061314597114687786,None,2312.732783654741,None,2312.732783654741,None,2312.732783654741,None,0.005385105370805832,0.011022053215128835,,,07_control,001,control,26,f,17,1,filo e ali,2023_Mar_24_1440,CPO_EEG,2020.1.3,144.1594074261375,
stimoli/01.full/F03-Sadness-Face Forward.mp4,sad,full,femmina,2,6,720,576,46,,,,,,,,,,,,,,,,,0,0,0,0,,,,,,,,,0,39,39,45,,,0.005568117743678158,0.009218743081873981,2317.1190606776145,None,0.006199135164933978,0.012621246500202687,-45.0,-194.0,1,0,0,3.714473436906701,click_1,0.006199135164933978,None,2323.1447981956626,None,2323.1447981956626,None,0.005462082179292338,0.011169592100486625,2326.859527901208,None,0.0061292145583138335,0.012496159175498178,-41.0,-211.0,1,0,0,1.0172315802483354,click_2,0.0061292145583138335,None,2327.361284576218,None,2327.361284576218,None,2327.361284576218,None,0.005382860214012908,0.010972339023282984,,,07_control,001,control,26,f,17,1,filo e ali,2023_Mar_24_1440,CPO_EEG,2020.1.3,144.1594074261375,
stimoli/02.subtle/JM2_Neutral.mp4,neutral,subtle,maschio,8,10,1646,926,28,,,,,,,,,,,,,,,,,0,0,0,0,,,,,,,,,0,40,40,27,,,0.005705393057723995,0.008991661485197255,2329.962804804123,None,0.0061818153808417264,0.012600719346664846,0.0,7.0,1,0,0,0.9196512822090881,click_1,0.0061818153808417264,None,2340.950586018058,None,2340.950586018058,None,0.005464968813612359,0.011195571776625002,2341.870546169728,None,0.006109970356192207,0.01245927445415873,0.0,-3.0,1,0,0,0.4804815669413074,click_2,0.006109970356192207,None,2342.3723025240033,None,2342.3723025240033,None,2342.3723025240033,None,0.00543578177166637,0.011113463177025551,,,07_control,001,control,26,f,17,1,filo e ali,2023_Mar_24_1440,CPO_EEG,2020.1.3,144.1594074261375,
stimoli/02.subtle/JM1_Happiness.mp4,happy,subtle,maschio,7,10,1646,926,15,,,,,,,,,,,,,,,,,0,0,0,0,,,,,,,,,0,41,41,14,,,0.0038396675627154764,0.007253909941937309,2344.4391411696997,None,0.00620619136680034,0.01264594322128687,70.0,-13.0,1,0,0,6.990486628168583,click_1,0.00620619136680034,None,2354.863566938715,None,2354.863566938715,None,0.0053831809491384774,0.011035203420760809,2361.854264290905,None,0.006063784265279537,0.012376203641906613,-54.0,-35.0,1,0,0,3.031631696740078,click_2,0.006063784265279537,None,2362.3561422043967,None,2362.3561422043967,None,2362.3561422043967,None,0.0053543146459560376,0.01093449208929087,,,07_control,001,control,26,f,17,1,filo e ali,2023_Mar_24_1440,CPO_EEG,2020.1.3,144.1594074261375,
stimoli/02.subtle/JF1_Anger.mp4,angry,subtle,femmina,5,10,1646,926,5,,,,,,,,,,,,,,,,,0,0,0,0,,,,,,,,,0,42,42,4,,,0.0027991976457997225,0.006681394897896098,2366.9757763592643,None,0.006185984955664026,0.012687638994975714,-83.0,-119.0,1,0,0,3.4567775196919683,click_1,0.006185984955664026,None,2377.7991844948156,None,2377.7991844948156,None,0.00543930987623753,0.011108652128314134,2381.2561076289785,None,0.0061192717257654294,0.012483650447393302,0.0,0.0,1,0,0,0.654856819921406,click_2,0.0061192717257654294,None,2381.75788002009,None,2381.75788002009,None,2381.75788002009,None,0.005375483269745018,0.010982923333358485,,,07_control,001,control,26,f,17,1,filo e ali,2023_Mar_24_1440,CPO_EEG,2020.1.3,144.1594074261375,
stimoli/01.full/F03-Neutral-Face Forward.mp4,neutral,full,femmina,2,6,720,576,54,,,,,,,,,,,,,,,,,0,0,0,0,,,,,,,,,0,43,43,53,,,0.006431220259401016,0.010184802085859701,2383.9968211783744,None,0.006166740757180378,0.01258468251398881,-3.0,6.0,1,0,0,1.1705389210801513,click_1,0.006166740757180378,None,2390.0190337998756,None,2390.0190337998756,None,0.005469138392072637,0.011149064954224741,2391.1898277066466,None,0.00612664866639534,0.012497442123276414,5.0,-5.0,1,0,0,1.1984221677848836,click_2,0.00612664866639534,None,2391.691618059016,None,2391.691618059016,None,2391.691618059016,None,0.005423914513812633,0.011096784870460397,,,07_control,001,control,26,f,17,1,filo e ali,2023_Mar_24_1440,CPO_EEG,2020.1.3,144.1594074261375,
stimoli/01.full/M03-Fear-Face Forward.mp4,fear,full,maschio,4,6,720,576,32,,,,,,,,,,,,,,,,,0,0,0,0,,,,,,,,,0,44,44,31,,,0.001823259961383883,0.005369966602302156,2394.4717517549107,None,0.00620875726963277,0.012632472284167306,17.0,-138.0,1,0,0,1.4424271173920715,click_1,0.00620875726963277,None,2400.495594681157,None,2400.495594681157,None,0.0054566296603297815,0.011182742313394556,2401.938311423808,None,0.00611638508780743,0.012503856854891637,-52.0,35.0,1,0,0,3.5333874095449573,click_2,0.00611638508780743,None,2402.440080928289,None,2402.440080928289,None,2402.440080928289,None,0.005372275903937407,0.010988696594722569,,,07_control,001,control,26,f,17,1,filo e ali,2023_Mar_24_1440,CPO_EEG,2020.1.3,144.1594074261375,
stimoli/01.full/F01-Fear-Face Forward.mp4,fear,full,femmina,1,6,720,576,29,,,,,,,,,,,,,,,,,0,0,0,0,,,,,,,,,0,45,45,28,,,0.006136078329291195,0.010187945306824986,2407.5651400240276,None,0.006199776635185117,0.012615152496437076,-123.0,-173.0,1,0,0,1.2102939167161821,click_1,0.006199776635185117,None,2413.590085643118,None,2413.590085643118,None,0.005394727468228666,0.01102493983853492,2414.8006707887725,None,0.00604069122709916,0.012308207460591802,-116.0,-153.0,1,0,0,2.4624414094214444,click_2,0.00604069122709916,None,2415.3015739833754,None,2415.3015739833754,None,2415.3015739833754,None,0.005322240973328007,0.010876759479288012,,,07_control,001,control,26,f,17,1,filo e ali,2023_Mar_24_1440,CPO_EEG,2020.1.3,144.1594074261375,
stimoli/01.full/F01-Sadness-Face Forward.mp4,sad,full,femmina,1,6,720,576,45,,,,,,,,,,,,,,,,,0,0,0,0,,,,,,,,,0,46,46,44,,,0.004091766626515891,0.007870045181334717,2419.3479409664797,None,0.006181494645716157,0.012612586604518583,-25.0,-139.0,1,0,0,8.334966524707852,click_1,0.006181494645716157,None,2425.374390199311,None,2425.374390199311,None,0.005447649029520107,0.011123726751975482,2433.7095834848806,None,0.006046785223588813,0.01233033829339547,6.0,12.0,1,0,0,0.8358915294084,click_2,0.006046785223588813,None,2434.2113427257864,None,2434.2113427257864,None,2434.2113427257864,None,0.005438989137473982,0.011124047487101052,,,07_control,001,control,26,f,17,1,filo e ali,2023_Mar_24_1440,CPO_EEG,2020.1.3,144.1594074261375,
stimoli/02.subtle/JF1_Happiness.mp4,happy,subtle,femmina,5,10,1646,926,13,,,,,,,,,,,,,,,,,0,0,0,0,,,,,,,,,0,47,47,12,,,0.0053361609498097096,0.009000577971164603,2436.639164775923,None,0.006192078955791658,0.012622208705579396,197.0,-53.0,1,0,0,2.511325855037285,click_1,0.006192078955791658,None,2447.4614362205393,None,2447.4614362205393,None,0.005391840841184603,0.011019166584446793,2449.97299140233,None,0.006071802687074523,0.01237716585455928,56.0,36.0,1,0,0,1.9615693262785499,click_2,0.006071802687074523,None,2450.473932123128,None,2450.473932123128,None,2450.473932123128,None,0.00537836990042706,0.010990300281264354,,,07_control,001,control,26,f,17,1,filo e ali,2023_Mar_24_1440,CPO_EEG,2020.1.3,144.1594074261375,
stimoli/01.full/M02-Anger-Face Forward.mp4,angry,full,maschio,3,6,720,576,35,,,,,,,,,,,,,,,,,0,0,0,0,,,,,,,,,0,48,48,34,,,0.004032109594845679,0.008027847645280417,2454.019661802373,None,0.006178608015034115,0.012590455771714915,-36.0,51.0,1,0,0,4.090790943162574,click_1,0.006178608015034115,None,2460.0401729155783,None,2460.0401729155783,None,0.0054566296603297815,0.011158366320159985,2464.131249955899,None,0.00612312056182418,0.012467934346204856,3.0,-8.0,1,0,0,0.55018471227595,click_2,0.00612312056182418,None,2464.6330431948954,None,2464.6330431948954,None,2464.6330431948954,None,0.005378049161663512,0.010989658803737257,,,07_control,001,control,26,f,17,1,filo e ali,2023_Mar_24_1440,CPO_EEG,2020.1.3,144.1594074261375,
stimoli/01.full/F03-Surprise-Face Forward.mp4,surprised,full,femmina,2,6,720,576,50,,,,,,,,,,,,,,,,,0,0,0,0,,,,,,,,,0,49,49,49,,,0.004180289961368544,0.007959530725202058,2466.7696231535992,None,0.006192078955791658,0.012646584698813967,41.0,-189.0,1,0,0,0.8848003510138369,click_1,0.006192078955791658,None,2472.7960361431797,None,2472.7960361431797,None,0.00549672174747684,0.011206476825464051,2473.681064858738,None,0.006107725199399283,0.012482688234740635,53.0,-212.0,1,0,0,1.4700778299738886,click_2,0.006107725199399283,None,2474.1829411685467,None,2474.1829411685467,None,2474.1829411685467,None,0.005505381639522966,0.011225721031223657,,,07_control,001,control,26,f,17,1,filo e ali,2023_Mar_24_1440,CPO_EEG,2020.1.3,144.1594074261375,
stimoli/01.full/F03-Fear-Face Forward.mp4,fear,full,femmina,2,6,720,576,30,,,,,,,,,,,,,,,,,0,0,0,0,,,,,,,,,0,50,50,29,,,0.0006782298660255037,0.004239369663991965,2477.235938100377,None,0.006202984004630707,0.012646905433939537,-102.0,-158.0,1,0,0,6.23025913602396,click_1,0.006202984004630707,None,2483.2575432465346,None,2483.2575432465346,None,0.005439951350126648,0.011132065912534017,2489.48802914342,None,0.006124082774476847,0.01247050023812335,-116.0,-173.0,1,0,0,1.3586243858699163,click_2,0.006124082774476847,None,2489.989846437671,None,2489.989846437671,None,2489.989846437671,None,0.005317750656104181,0.01089536220752052,,,07_control,001,control,26,f,17,1,filo e ali,2023_Mar_24_1440,CPO_EEG,2020.1.3,144.1594074261375,
stimoli/02.subtle/JF2_Disgust.mp4,disgusted,subtle,femmina,6,10,1646,926,10,,,,,,,,,,,,,,,,,0,0,0,0,,,,,,,,,0,51,51,9,,,0.005413137761934195,0.00891622421113425,2492.9400639292435,None,0.006202342530741589,0.012623812388483202,-103.0,165.0,1,0,0,2.9548498920084967,click_1,0.006202342530741589,None,2503.3643190663206,None,2503.3643190663206,None,0.005456950395455351,0.011148744215461193,2506.3194011717133,None,0.006118309509474784,0.01247787718239124,-134.0,27.0,1,0,0,1.7212862055603182,click_2,0.006118309509474784,None,2506.8212126927065,None,2506.8212126927065,None,2506.8212126927065,None,0.005389916419517249,0.011046429204725428,,,07_control,001,control,26,f,17,1,filo e ali,2023_Mar_24_1440,CPO_EEG,2020.1.3,144.1594074261375,
stimoli/02.subtle/JF2_Happiness.mp4,happy,subtle,femmina,6,9,1646,926,14,,,,,,,,,,,,,,,,,0,0,0,0,,,,,,,,,0,52,52,13,,,0.005363423570088344,0.009469815788179403,2510.1349624834256,None,0.0061888715863460675,0.012615473231562646,81.0,113.0,1,0,0,3.7214828171709087,click_1,0.0061888715863460675,None,2519.6369555413985,None,2519.6369555413985,None,0.005452139343105955,0.011133028117910726,2523.358672496375,None,0.006109649621066637,0.01245606708835112,64.0,-16.0,1,0,0,0.9056729345029453,click_2,0.006109649621066637,None,2523.860518656933,None,2523.860518656933,None,2523.860518656933,None,0.005416858304670313,0.011079785821493715,,,07_control,001,control,26,f,17,1,filo e ali,2023_Mar_24_1440,CPO_EEG,2020.1.3,144.1594074261375,
stimoli/02.subtle/JM2_Surprise.mp4,surprised,subtle,maschio,8,10,1646,926,24,,,,,,,,,,,,,,,,,0,0,0,0,,,,,,,,,0,53,53,23,,,0.002769369133602595,0.00638343048558454,2526.353907310935,None,0.006203625478519825,0.012679299841693137,-199.0,36.0,1,0,0,8.126321194733464,click_1,0.006203625478519825,None,2537.341004714188,None,2537.341004714188,None,0.005421990092145279,0.011084276135079563,2545.4675186716886,None,0.006105480042606359,0.012485574865422677,23.0,-99.0,1,0,0,0.989382652376662,click_2,0.006105480042606359,None,2545.969311910685,None,2545.969311910685,None,2545.969311910685,None,0.005394085997977527,0.01102044952858705,,,07_control,001,control,26,f,17,1,filo e ali,2023_Mar_24_1440,CPO_EEG,2020.1.3,144.1594074261375,
stimoli/02.subtle/JF2_Sadness.mp4,sad,subtle,femmina,6,8,1646,926,18,,,,,,,,,,,,,,,,,0,0,0,0,,,,,,,,,0,54,54,17,,,0.0011925632716156542,0.004848961871175561,2548.5546740641366,None,0.006193041168444324,0.012632151549041737,-91.0,-22.0,1,0,0,6.09137275957255,click_1,0.006193041168444324,None,2556.9367831133386,None,2556.9367831133386,None,0.005544511521293316,0.011352091300068423,2563.028524720139,None,0.006120554669905687,0.01247402834269451,-52.0,-34.0,1,0,0,2.2997560476505896,click_2,0.006120554669905687,None,2563.5303663903833,None,2563.5303663903833,None,2563.5303663903833,None,0.0053831809491384774,0.011033920469344594,,,07_control,001,control,26,f,17,1,filo e ali,2023_Mar_24_1440,CPO_EEG,2020.1.3,144.1594074261375,
stimoli/01.full/M03-Neutral-Face Forward.mp4,neutral,full,maschio,4,6,720,576,56,,,,,,,,,,,,,,,,,0,0,0,0,,,,,,,,,0,55,55,55,,,0.00633692366318428,0.010446202511957381,2567.4147930831205,None,0.00618758864220581,0.01264209438522812,1.0,1.0,1,0,0,0.5502985738130519,click_1,0.00618758864220581,None,2573.4403846659625,None,2573.4403846659625,None,0.005489344803208951,0.01119909988483414,2573.990893963797,None,0.006142044028820237,0.012540420844743494,0.0,0.0,1,0,0,0.6687488894494891,click_2,0.006142044028820237,None,2574.492720238679,None,2574.492720238679,None,2574.492720238679,None,0.005405632520705694,0.011062145302275894,,,07_control,001,control,26,f,17,1,filo e ali,2023_Mar_24_1440,CPO_EEG,2020.1.3,144.1594074261375,
,,,,,,,,,,,,,,,,,,,,,,,,,0,0,0,0,,,,,,,,,,,,,,,,,,,,,,,,,,,,,,,,,,,,,,,,,,,,,,,,,,,,,,,,,,,07_control,001,control,26,f,17,1,filo e ali,2023_Mar_24_1440,CPO_EEG,2020.1.3,144.1594074261375,
,,,,,,,,,,,,,,,,,,,,,,,,,1,0,1,0,,,,,0,0,0,0,,,,,,,,,,,,,,,,,,,,,,,,,,,,,,,,,,,,,,,,,,,,,,,,,,,07_control,001,control,26,f,17,1,filo e ali,2023_Mar_24_1440,CPO_EEG,2020.1.3,144.1594074261375,
stimoli/02.subtle/JM2_Anger.mp4,angry,subtle,maschio,8,10,1646,926,8,,,,,,,,,,,,,,,,,1,0,1,0,,,,,,,,,0,0,0,7,,,0.0033322620765829924,0.006679470479866723,2588.8436706777975,None,0.005773838274762966,0.011791821340011666,-139.0,30.0,1,0,0,4.034596266239532,click_1,0.005773838274762966,None,2599.8297096498754,None,2599.8297096498754,None,0.004674032068578526,0.00960600059988792,2603.864985877961,None,0.005821307309815893,0.011877778779307846,-64.0,82.0,1,0,0,1.1981845018744934,click_2,0.005821307309815893,None,2604.366741270027,None,2604.366741270027,None,2604.366741270027,None,0.004506607496296056,0.009276603985199472,,,07_control,001,control,26,f,17,1,filo e ali,2023_Mar_24_1440,CPO_EEG,2020.1.3,144.1594074261375,
stimoli/01.full/F01-Joy-Face Forward.mp4,happy,full,femmina,1,6,720,576,41,,,,,,,,,,,,,,,,,1,0,1,0,,,,,,,,,0,1,1,40,,,0.0004412054331623949,0.004616235310095362,2607.1491008787525,None,0.006164816335513024,0.012546194106107578,178.0,100.0,1,0,0,2.487783459091588,click_1,0.006164816335513024,None,2613.1705969744253,None,2613.1705969744253,None,0.005461119973915629,0.01115997000306379,2615.6586710209885,None,0.006107083725510165,0.012456708558602259,178.0,113.0,1,0,0,1.058835943807935,click_2,0.006107083725510165,None,2616.160493767762,None,2616.160493767762,None,2616.160493767762,None,0.00542904629764962,0.01112789633043576,,,07_control,001,control,26,f,17,1,filo e ali,2023_Mar_24_1440,CPO_EEG,2020.1.3,144.1594074261375,
stimoli/01.full/M02-Joy-Face Forward.mp4,happy,full,maschio,3,6,720,576,43,,,,,,,,,,,,,,,,,1,0,1,0,,,,,,,,,0,2,2,42,,,0.0049879050166055094,0.008558025441743666,2618.8048159901336,None,0.006179249485285254,0.01257441893176292,184.0,106.0,1,0,0,1.8117952211541706,click_1,0.006179249485285254,None,2624.8277868332443,None,2624.8277868332443,None,0.005428084092272911,0.01112084012493142,2626.639849869556,None,0.006111253300332464,0.012459274450520752,139.0,20.0,1,0,0,0.961381695298769,click_2,0.006111253300332464,None,2627.141611355619,None,2627.141611355619,None,2627.141611355619,None,0.005384463893278735,0.01100633711394039,,,07_control,001,control,26,f,17,1,filo e ali,2023_Mar_24_1440,CPO_EEG,2020.1.3,144.1594074261375,
stimoli/02.subtle/JF1_Sadness.mp4,sad,subtle,femmina,5,10,1646,926,17,,,,,,,,,,,,,,,,,1,0,1,0,,,,,,,,,0,3,3,16,,,0.0035801915582851507,0.0070277905542752706,2629.6896134545204,None,0.006204587691172492,0.012676092479523504,-198.0,-40.0,1,0,0,3.470464959194942,click_1,0.006204587691172492,None,2640.5116430636517,None,2640.5116430636517,None,0.005458874817122705,0.011166705473442562,2643.982361084116,None,0.006128252345661167,0.012508026433351915,-84.0,-54.0,1,0,0,1.3796204529971874,click_2,0.006128252345661167,None,2644.4841687562657,None,2644.4841687562657,None,2644.4841687562657,None,0.005405311781942146,0.011039372995583108,,,07_control,001,control,26,f,17,1,filo e ali,2023_Mar_24_1440,CPO_EEG,2020.1.3,144.1594074261375,
stimoli/01.full/M02-Neutral-Face Forward.mp4,neutral,full,maschio,3,6,720,576,55,,,,,,,,,,,,,,,,,1,0,1,0,,,,,,,,,0,4,4,54,,,0.005332055519829737,0.00890730773244286,2647.4487244621378,None,0.006201059582963353,0.012665187427046476,3.0,-4.0,1,0,0,0.7384603739410522,click_1,0.006201059582963353,None,2653.471497089955,None,2653.471497089955,None,0.005488703329319833,0.011209042721020523,2654.2101948090676,None,0.006144609924376709,0.012520855907496298,0.0,0.0,1,0,0,0.6060015613475116,click_2,0.006144609924376709,None,2654.7119960664822,None,2654.7119960664822,None,2654.7119960664822,None,0.005292733199894428,0.010853666441107634,,,07_control,001,control,26,f,17,1,filo e ali,2023_Mar_24_1440,CPO_EEG,2020.1.3,144.1594074261375,
stimoli/01.full/F01-Surprise-Face Forward.mp4,surprised,full,femmina,1,6,720,576,49,,,,,,,,,,,,,,,,,1,0,1,0,,,,,,,,,0,5,5,48,,,0.0053689402411691844,0.00934030230200733,2656.9034232871527,None,0.006206832847965416,0.012696940364548936,35.0,-205.0,1,0,0,1.0382372694766673,click_1,0.006206832847965416,None,2662.926383866685,None,2662.926383866685,None,0.005429687775176717,0.011091332347859861,2663.964800107253,None,0.006060256164346356,0.012395768582791789,45.0,-208.0,1,0,0,1.3377322374399228,click_2,0.006060256164346356,None,2664.46655517858,None,2664.46655517858,None,2664.46655517858,None,0.0053767662175232545,0.010997035751643125,,,07_control,001,control,26,f,17,1,filo e ali,2023_Mar_24_1440,CPO_EEG,2020.1.3,144.1594074261375,
stimoli/01.full/M03-Disgust-Face Forward.mp4,disgusted,full,maschio,4,6,720,576,40,,,,,,,,,,,,,,,,,1,0,1,0,,,,,,,,,0,6,6,39,,,0.005835291431139922,0.009592401362169767,2667.3890055301417,None,0.006194003377459012,0.012637604071642272,-161.0,100.0,1,0,0,2.3066746594231518,click_1,0.006194003377459012,None,2673.411246376476,None,2673.411246376476,None,0.005403066628787201,0.011036486368539045,2675.7180900641542,None,0.006036200909875333,0.012309811143495608,-66.0,126.0,1,0,0,0.9474113660107832,click_2,0.006036200909875333,None,2676.219965732489,None,2676.219965732489,None,2676.219965732489,None,0.005369710004742956,0.010965603549266234,,,07_control,001,control,26,f,17,1,filo e ali,2023_Mar_24_1440,CPO_EEG,2020.1.3,144.1594074261375,
stimoli/02.subtle/JM1_Surprise.mp4,surprised,subtle,maschio,7,10,1646,926,23,,,,,,,,,,,,,,,,,1,0,1,0,,,,,,,,,0,7,7,22,,,0.004824906620342517,0.00847906006674748,2678.7597893657803,None,0.006192078955791658,0.012619963548786473,37.0,-57.0,1,0,0,11.81975911389236,click_1,0.006192078955791658,None,2689.18427030151,None,2689.18427030151,None,0.005424235248938203,0.01109903002725332,2701.004278948574,None,0.006115422878792742,0.012474990551709197,-61.0,12.0,1,0,0,7.7225101368821925,click_2,0.006115422878792742,None,2701.506099129456,None,2701.506099129456,None,2701.506099129456,None,0.00535046579898335,0.010938340925349621,,,07_control,001,control,26,f,17,1,filo e ali,2023_Mar_24_1440,CPO_EEG,2020.1.3,144.1594074261375,
stimoli/01.full/M03-Neutral-Face Forward.mp4,neutral,full,maschio,4,6,720,576,56,,,,,,,,,,,,,,,,,1,0,1,0,,,,,,,,,0,8,8,55,,,0.004912531883746851,0.009024697366839973,2710.81474311234,None,0.006196569269377505,0.012611624395503895,1.0,-8.0,1,0,0,0.9057120643847156,click_1,0.006196569269377505,None,2716.837837118346,None,2716.837837118346,None,0.0054720250191167,0.011173120208695764,2717.7438067343137,None,0.0061227998266986106,0.01251668632903602,1.0,1.0,1,0,0,0.5642163022748719,click_2,0.0061227998266986106,None,2718.245608312467,None,2718.245608312467,None,2718.245608312467,None,0.005391199367295485,0.010997356483130716,,,07_control,001,control,26,f,17,1,filo e ali,2023_Mar_24_1440,CPO_EEG,2020.1.3,144.1594074261375,
stimoli/01.full/M03-Joy-Face Forward.mp4,happy,full,maschio,4,6,720,576,44,,,,,,,,,,,,,,,,,1,0,1,0,,,,,,,,,0,9,9,43,,,0.001354663610982243,0.004987969165085815,2720.3919620812194,None,0.006206191370438319,0.012630227123736404,179.0,111.0,1,0,0,1.8606289903655124,click_1,0.006206191370438319,None,2726.4128061191404,None,2726.4128061191404,None,0.0054720250227546785,0.011207759776880266,2728.273722810347,None,0.006121516875282396,0.012489744440244976,12.0,66.0,1,0,0,1.3587234935148444,click_2,0.006121516875282396,None,2728.7755141249218,None,2728.7755141249218,None,2728.7755141249218,None,0.005409160625276854,0.011048032891267212,,,07_control,001,control,26,f,17,1,filo e ali,2023_Mar_24_1440,CPO_EEG,2020.1.3,144.1594074261375,
stimoli/02.subtle/JF1_Happiness.mp4,happy,subtle,femmina,5,10,1646,926,13,,,,,,,,,,,,,,,,,1,0,1,0,,,,,,,,,0,10,10,12,,,0.0008574575476814061,0.004410578923852881,2731.7236253384544,None,0.006191758220666088,0.012619963548786473,202.0,35.0,1,0,0,1.74901806453272,click_1,0.006191758220666088,None,2742.5475591614886,None,2742.5475591614886,None,0.005465610287501477,0.011179214205185417,2744.2968662098065,None,0.006128252349299146,0.012475632029236294,132.0,-33.0,1,0,0,0.8986962693852547,click_2,0.006128252349299146,None,2744.798636035026,None,2744.798636035026,None,2744.798636035026,None,0.0054027458900236525,0.011048995096643921,,,07_control,001,control,26,f,17,1,filo e ali,2023_Mar_24_1440,CPO_EEG,2020.1.3,144.1594074261375,
stimoli/02.subtle/JF1_Surprise.mp4,surprised,subtle,femmina,5,10,1646,926,21,,,,,,,,,,,,,,,,,1,0,1,0,,,,,,,,,0,11,11,20,,,0.003090619033173425,0.006601723900530487,2747.2979910334834,None,0.006184702011523768,0.012604247451236006,38.0,-137.0,1,0,0,4.962272381169896,click_1,0.006184702011523768,None,2758.1247899976333,None,2758.1247899976333,None,0.005445724611490732,0.011128217069199309,2763.087301006919,None,0.006115743617556291,0.012503856858529616,-64.0,11.0,1,0,0,3.226781067038246,click_2,0.006115743617556291,None,2763.589156789578,None,2763.589156789578,None,2763.589156789578,None,0.0053270520256774034,0.010874835061258636,,,07_control,001,control,26,f,17,1,filo e ali,2023_Mar_24_1440,CPO_EEG,2020.1.3,144.1594074261375,
stimoli/01.full/F01-Anger-Face Forward.mp4,angry,full,femmina,1,6,720,576,33,,,,,,,,,,,,,,,,,1,0,1,0,,,,,,,,,0,12,12,32,,,0.005247701763437362,0.00924728865356883,2768.401554995762,None,0.0061782872762705665,0.012604888925125124,-58.0,204.0,1,0,0,0.9336584962184133,click_1,0.0061782872762705665,None,2774.42495402239,None,2774.42495402239,None,0.005502815743966494,0.011219947769859573,2775.3588703909336,None,0.006127290140284458,0.01247402834269451,-28.0,196.0,1,0,0,0.5990916094633576,click_2,0.006127290140284458,None,2775.8606164816338,None,2775.8606164816338,None,2775.8606164816338,None,0.005415254621766508,0.011040655943361344,,,07_control,001,control,26,f,17,1,filo e ali,2023_Mar_24_1440,CPO_EEG,2020.1.3,144.1594074261375,
stimoli/01.full/M02-Disgust-Face Forward.mp4,disgusted,full,maschio,3,6,720,576,39,,,,,,,,,,,,,,,,,1,0,1,0,,,,,,,,,0,13,13,38,,,0.0027950280673394445,0.006531290109705878,2778.0474109811257,None,0.006197210746904602,0.012642415123991668,-177.0,104.0,1,0,0,2.0348477238258056,click_1,0.006197210746904602,None,2784.074940775965,None,2784.074940775965,None,0.0054335366148734465,0.01107754066833877,2786.1099639427775,None,0.0060297861746221315,0.01228415220612078,-34.0,53.0,1,0,0,1.1007296118878003,click_2,0.0060297861746221315,None,2786.6117610306173,None,2786.6117610306173,None,2786.6117610306173,None,0.0054098020955279935,0.011032316786440788,,,07_control,001,control,26,f,17,1,filo e ali,2023_Mar_24_1440,CPO_EEG,2020.1.3,144.1594074261375,
stimoli/01.full/M02-Surprise-Face Forward.mp4,surprised,full,maschio,3,6,720,576,51,,,,,,,,,,,,,,,,,1,0,1,0,,,,,,,,,0,14,14,50,,,0.005897193619603058,0.00950516097509535,2789.297062821417,None,0.006170268858113559,0.012623170914594084,38.0,-196.0,1,0,0,2.1881156140407256,click_1,0.006170268858113559,None,2795.319481355895,None,2795.319481355895,None,0.005455025977425976,0.011140084327053046,2797.507804165856,None,0.006138195189123508,0.01249904580618022,51.0,-189.0,1,0,0,1.8256786307902075,click_2,0.006138195189123508,None,2798.0095990085356,None,2798.0095990085356,None,2798.0095990085356,None,0.005370351482270053,0.011000884591339855,,,07_control,001,control,26,f,17,1,filo e ali,2023_Mar_24_1440,CPO_EEG,2020.1.3,144.1594074261375,
stimoli/01.full/F01-Neutral-Face Forward.mp4,neutral,full,femmina,1,6,720,576,53,,,,,,,,,,,,,,,,,1,0,1,0,,,,,,,,,0,15,15,52,,,0.0018013857115874998,0.005460670945467427,2801.4238250291382,None,0.006202663269505138,0.012652037225052482,-37.0,53.0,1,0,0,6.293331049688277,click_1,0.006202663269505138,None,2807.445226186741,None,2807.445226186741,None,0.005431932931969641,0.011116349811345572,2813.7387888083395,None,0.0061025934119243175,0.01244548277463764,2.0,0.0,1,0,0,0.8151337696654082,click_2,0.0061025934119243175,None,2814.240645873946,None,2814.240645873946,None,2814.240645873946,None,0.005415254621766508,0.011089728661318077,,,07_control,001,control,26,f,17,1,filo e ali,2023_Mar_24_1440,CPO_EEG,2020.1.3,144.1594074261375,
stimoli/02.subtle/JM2_Sadness.mp4,sad,subtle,maschio,8,10,1646,926,20,,,,,,,,,,,,,,,,,1,0,1,0,,,,,,,,,0,16,16,19,,,0.005760239037044812,0.009420165741175879,2816.640638561148,None,0.006156477178592468,0.012532081687822938,-199.0,-49.0,1,0,0,2.0906029914476676,click_1,0.006156477178592468,None,2827.2665848146535,None,2827.2665848146535,None,0.005473949440784054,0.011157083372381749,2829.357482242409,None,0.006127290140284458,0.012499687280069338,-9.0,-64.0,1,0,0,1.5468721434408508,click_2,0.006127290140284458,None,2829.8593027440293,None,2829.8593027440293,None,2829.8593027440293,None,0.005398897050326923,0.011071125933085568,,,07_control,001,control,26,f,17,1,filo e ali,2023_Mar_24_1440,CPO_EEG,2020.1.3,144.1594074261375,
stimoli/02.subtle/JF1_Disgust.mp4,disgusted,subtle,femmina,5,10,1646,926,9,,,,,,,,,,,,,,,,,1,0,1,0,,,,,,,,,0,17,17,8,,,0.002263567323097959,0.005961661699984688,2832.9944644049574,None,0.006195286321599269,0.012675130263232859,-190.0,110.0,1,0,0,1.421548760641599,click_1,0.006195286321599269,None,2843.8210391741413,None,2843.8210391741413,None,0.0054425172456831206,0.011107689919299446,2845.2427611326093,None,0.006106442247983068,0.012436502143827965,-182.0,116.0,1,0,0,1.7977376514754724,click_2,0.006106442247983068,None,2845.7446146701113,None,2845.7446146701113,None,2845.7446146701113,None,0.005390237158280797,0.010994790591212222,,,07_control,001,control,26,f,17,1,filo e ali,2023_Mar_24_1440,CPO_EEG,2020.1.3,144.1594074261375,
stimoli/01.full/F03-Neutral-Face Forward.mp4,neutral,full,femmina,2,6,720,576,54,,,,,,,,,,,,,,,,,1,0,1,0,,,,,,,,,0,18,18,53,,,0.0011452225298853591,0.004754152098030318,2849.1248214298284,None,0.006183739798871102,0.0126068133431545,0.0,0.0,1,0,0,0.6966356642551546,click_1,0.006183739798871102,None,2855.1460015998346,None,2855.1460015998346,None,0.005457912608108018,0.01118178010074189,2855.8428771751533,None,0.006167382227431517,0.012585644723003497,0.0,0.0,1,0,0,0.299401954314817,click_2,0.006167382227431517,None,2856.3446886961465,None,2856.3446886961465,None,2856.3446886961465,None,0.005409802099165972,0.011035203420760809,,,07_control,001,control,26,f,17,1,filo e ali,2023_Mar_24_1440,CPO_EEG,2020.1.3,144.1594074261375,
stimoli/01.full/F01-Disgust-Face Forward.mp4,disgusted,full,femmina,1,6,720,576,37,,,,,,,,,,,,,,,,,1,0,1,0,,,,,,,,,0,19,19,36,,,0.003173240809701383,0.006960499991691904,2858.2246045476604,None,0.00623056736367289,0.012676733949774643,-170.0,105.0,1,0,0,1.1566067594649212,click_1,0.00623056736367289,None,2864.2515429039886,None,2864.2515429039886,None,0.00558235845528543,0.011426181485148845,2865.4084947761585,None,0.006115102143667173,0.012498083597165532,-175.0,116.0,1,0,0,0.9056392571474134,click_2,0.006115102143667173,None,2865.9102597903257,None,2865.9102597903257,None,2865.9102597903257,None,0.005426480405731127,0.01108523834773223,,,07_control,001,control,26,f,17,1,filo e ali,2023_Mar_24_1440,CPO_EEG,2020.1.3,144.1594074261375,
stimoli/02.subtle/JF2_Surprise.mp4,surprised,subtle,femmina,6,10,1646,926,22,,,,,,,,,,,,,,,,,1,0,1,0,,,,,,,,,0,20,20,21,,,0.0018943993563880213,0.005625850350043038,2868.40451764084,None,0.006186947171954671,0.012664545956795337,56.0,-187.0,1,0,0,1.1218847644304333,click_1,0.006186947171954671,None,2878.8266427653652,None,2878.8266427653652,None,0.005470742074976442,0.01116349810763495,2879.948721896246,None,0.006126648662757361,0.012490385914134094,-39.0,56.0,1,0,0,2.1045373982196907,click_2,0.006126648662757361,None,2880.450476967573,None,2880.450476967573,None,2880.450476967573,None,0.005388954210502561,0.01104193889113958,,,07_control,001,control,26,f,17,1,filo e ali,2023_Mar_24_1440,CPO_EEG,2020.1.3,144.1594074261375,
stimoli/01.full/F01-Sadness-Face Forward.mp4,sad,full,femmina,1,6,720,576,45,,,,,,,,,,,,,,,,,1,0,1,0,,,,,,,,,0,21,21,44,,,0.00567492307163775,0.009271343904401874,2884.1397129149773,None,0.0061972107432666235,0.01263856628065696,-36.0,-208.0,1,0,0,1.5120853595872177,click_1,0.0061972107432666235,None,2890.165364475586,None,2890.165364475586,None,0.005465289548737928,0.01120006209021085,2891.67771797107,None,0.0061054800389683805,0.012451256036001723,-66.0,-15.0,1,0,0,1.0659431487729307,click_2,0.0061054800389683805,None,2892.17952179438,None,2892.17952179438,None,2892.17952179438,None,0.005382860214012908,0.010997997960657813,,,07_control,001,control,26,f,17,1,filo e ali,2023_Mar_24_1440,CPO_EEG,2020.1.3,144.1594074261375,
stimoli/01.full/M03-Surprise-Face Forward.mp4,surprised,full,maschio,4,6,720,576,52,,,,,,,,,,,,,,,,,1,0,1,0,,,,,,,,,0,22,22,51,,,0.0010409830974822398,0.004573898058879422,2894.8279308440287,None,0.00619111674677697,0.012597832719620783,39.0,-197.0,1,0,0,2.892068565815862,click_1,0.00619111674677697,None,2900.8490491118464,None,2900.8490491118464,None,0.005462402921693865,0.011141367274831282,2903.7413787573496,None,0.006126007188868243,0.012486857809562935,0.0,0.0,1,0,0,1.1218815570609877,click_2,0.006126007188868243,None,2904.243170071928,None,2904.243170071928,None,2904.243170071928,None,0.005380615057219984,0.011012431114068022,,,07_control,001,control,26,f,17,1,filo e ali,2023_Mar_24_1440,CPO_EEG,2020.1.3,144.1594074261375,
stimoli/01.full/F01-Fear-Face Forward.mp4,fear,full,femmina,1,6,720,576,29,,,,,,,,,,,,,,,,,1,0,1,0,,,,,,,,,0,23,23,28,,,0.006363224070810247,0.010450051348016132,2906.9497274058594,None,0.006181494642078178,0.012578588510223199,-129.0,-171.0,1,0,0,1.8675366970928735,click_1,0.006181494642078178,None,2912.9753273278584,None,2912.9753273278584,None,0.0054531015557586215,0.011137518435134552,2914.8431446695795,None,0.0061096496174286585,0.01244195467006648,28.0,-99.0,1,0,0,1.2262204192556965,click_2,0.0061096496174286585,None,2915.3449523417294,None,2915.3449523417294,None,2915.3449523417294,None,0.005422631566034397,0.011088124978414271,,,07_control,001,control,26,f,17,1,filo e ali,2023_Mar_24_1440,CPO_EEG,2020.1.3,144.1594074261375,
stimoli/01.full/M03-Fear-Face Forward.mp4,fear,full,maschio,4,6,720,576,32,,,,,,,,,,,,,,,,,1,0,1,0,,,,,,,,,0,24,24,31,,,0.0004129806002310943,0.00410145287605701,2918.1544478806027,None,0.006199455903697526,0.012644018806895474,-51.0,-85.0,1,0,0,2.06270306643637,click_1,0.006199455903697526,None,2924.176104986109,None,2924.176104986109,None,0.005480684911162825,0.011191081463039154,2926.239026794985,None,0.006104197094828123,0.012460557398298988,0.0,0.0,1,0,0,4.473873428309162,click_2,0.006104197094828123,None,2926.7408379952394,None,2926.7408379952394,None,2926.7408379952394,None,0.0053411644366860855,0.010926152932370314,,,07_control,001,control,26,f,17,1,filo e ali,2023_Mar_24_1440,CPO_EEG,2020.1.3,144.1594074261375,
stimoli/02.subtle/JF1_Anger.mp4,angry,subtle,femmina,5,10,1646,926,5,,,,,,,,,,,,,,,,,1,0,1,0,,,,,,,,,0,25,25,4,,,0.00422994000473409,0.007747780342469923,2932.807439295764,None,0.006217417154402938,0.012704317305178847,-65.0,11.0,1,0,0,3.5540916062527685,click_1,0.006217417154402938,None,2943.6337032710653,None,2943.6337032710653,None,0.005475232384924311,0.011194288828846766,2947.188015544183,None,0.006131780453870306,0.012497442123276414,0.0,0.0,1,0,0,0.6339098255120916,click_2,0.006131780453870306,None,2947.68981102834,None,2947.68981102834,None,2947.68981102834,None,0.005270923098578351,0.010763539416075218,,,07_control,001,control,26,f,17,1,filo e ali,2023_Mar_24_1440,CPO_EEG,2020.1.3,144.1594074261375,
stimoli/01.full/F03-Surprise-Face Forward.mp4,surprised,full,femmina,2,6,720,576,50,,,,,,,,,,,,,,,,,1,0,1,0,,,,,,,,,0,26,26,49,,,0.003152713663439499,0.007170903281803476,2949.904615786276,None,0.006045502272172598,0.01235599722713232,48.0,-206.0,1,0,0,1.1913130383945827,click_1,0.006045502272172598,None,2955.927757902791,None,2955.927757902791,None,0.005541304151847726,0.011343752143147867,2957.1195655172087,None,0.006107725199399283,0.012439388778147986,45.0,-204.0,1,0,0,1.7559552790371526,click_2,0.006107725199399283,None,2957.6212872319193,None,2957.6212872319193,None,2957.6212872319193,None,0.005401783677370986,0.011020128789823502,,,07_control,001,control,26,f,17,1,filo e ali,2023_Mar_24_1440,CPO_EEG,2020.1.3,144.1594074261375,
stimoli/02.subtle/JM2_Neutral.mp4,neutral,subtle,maschio,8,10,1646,926,28,,,,,,,,,,,,,,,,,1,0,1,0,,,,,,,,,0,27,27,27,,,0.002089728022838244,0.0055180828167067375,2960.9653934701855,None,0.006160646757052746,0.012540100105979946,0.0,0.0,1,0,0,0.9336132723401533,click_1,0.006160646757052746,None,2971.948751404023,None,2971.948751404023,None,0.005450535660202149,0.011130782961117802,2972.8826267182667,None,0.006192078955791658,0.012596870506968116,0.0,0.0,1,0,0,0.45269101314625004,click_2,0.006192078955791658,None,2973.3844526724097,None,2973.3844526724097,None,2973.3844526724097,None,0.005304279715346638,0.010856232329388149,,,07_control,001,control,26,f,17,1,filo e ali,2023_Mar_24_1440,CPO_EEG,2020.1.3,144.1594074261375,
stimoli/02.subtle/JF2_Fear.mp4,fear,subtle,femmina,6,10,1646,926,2,,,,,,,,,,,,,,,,,1,0,1,0,,,,,,,,,0,28,28,1,,,0.006614296777115669,0.010121552801138023,2975.4275221613025,None,0.006200738847837783,0.012622529444342945,-81.0,-131.0,1,0,0,2.689977811431163,click_1,0.006200738847837783,None,2985.851139673785,None,2985.851139673785,None,0.005453101552120643,0.011137197696371004,2988.5413519437607,None,0.006114781408541603,0.01245221824865439,44.0,-142.0,1,0,0,1.2471173787344014,click_2,0.006114781408541603,None,2989.0431031662483,None,2989.0431031662483,None,2989.0431031662483,None,0.0053963311584084295,0.011025581319699995,,,07_control,001,control,26,f,17,1,filo e ali,2023_Mar_24_1440,CPO_EEG,2020.1.3,144.1594074261375,
stimoli/02.subtle/JM1_Fear.mp4,fear,subtle,maschio,7,10,1646,926,3,,,,,,,,,,,,,,,,,1,0,1,0,,,,,,,,,0,29,29,2,,,0.0033280924944847357,0.0069649261531594675,2991.8774362359363,None,0.006194644847710151,0.01263118933638907,35.0,-147.0,1,0,0,1.0242185089482518,click_1,0.006194644847710151,None,3002.302431633365,None,3002.302431633365,None,0.005560548357607331,0.01135305351272109,3003.3269702375546,None,0.0061138191958889365,0.012464726976759266,-67.0,-117.0,1,0,0,0.7453667977169971,click_2,0.0061138191958889365,None,3003.8287634765547,None,3003.8287634765547,None,3003.8287634765547,None,0.005420386409241473,0.011064390462706797,,,07_control,001,control,26,f,17,1,filo e ali,2023_Mar_24_1440,CPO_EEG,2020.1.3,144.1594074261375,
stimoli/02.subtle/JM1_Disgust.mp4,disgusted,subtle,maschio,7,10,1646,926,11,,,,,,,,,,,,,,,,,1,0,1,0,,,,,,,,,0,30,30,10,,,0.003245021685870597,0.0071602548196096905,3006.1617093599307,None,0.006192399694555206,0.012623170918232063,-190.0,-46.0,1,0,0,1.1915875890263123,click_1,0.006192399694555206,None,3016.587073604587,None,3016.587073604587,None,0.005476836071466096,0.011168629895109916,3017.7789027083636,None,0.006023692181770457,0.012220325599628268,-19.0,-150.0,1,0,0,1.5814635986280337,click_2,0.006023692181770457,None,3018.280637252541,None,3018.280637252541,None,3018.280637252541,None,0.005501853534951806,0.011248493337916443,,,07_control,001,control,26,f,17,1,filo e ali,2023_Mar_24_1440,CPO_EEG,2020.1.3,144.1594074261375,
stimoli/02.subtle/JF2_Disgust.mp4,disgusted,subtle,femmina,6,10,1646,926,10,,,,,,,,,,,,,,,,,1,0,1,0,,,,,,,,,0,31,31,9,,,0.0009636214017518796,0.004415069241076708,3021.4516383552364,None,0.006191116743138991,0.012618680601008236,-114.0,167.0,1,0,0,1.149690392845514,click_1,0.006191116743138991,None,3031.878052691911,None,3031.878052691911,None,0.005452139343105955,0.011142008745082421,3033.0279958252904,None,0.006111894777859561,0.012464406241633696,-64.0,14.0,1,0,0,1.1355712417207542,click_2,0.006111894777859561,None,3033.529835891848,None,3033.529835891848,None,3033.529835891848,None,0.005413330203737132,0.011090049400081625,,,07_control,001,control,26,f,17,1,filo e ali,2023_Mar_24_1440,CPO_EEG,2020.1.3,144.1594074261375,
stimoli/02.subtle/JM1_Anger.mp4,angry,subtle,maschio,7,10,1646,926,7,,,,,,,,,,,,,,,,,1,0,1,0,,,,,,,,,0,32,32,6,,,0.0035468349378788844,0.006916174173966283,3036.252044856952,None,0.006223190419405,0.012664545956795337,-64.0,15.0,1,0,0,7.157446448192786,click_1,0.006223190419405,None,3046.676746459547,None,3046.676746459547,None,0.005447649029520107,0.01115644189849263,3053.834431535859,None,0.00612985603584093,0.012497762862039963,-33.0,-52.0,1,0,0,2.996791029119777,click_2,0.00612985603584093,None,3054.336266149894,None,3054.336266149894,None,3054.336266149894,None,0.005369710004742956,0.010965603549266234,,,07_control,001,control,26,f,17,1,filo e ali,2023_Mar_24_1440,CPO_EEG,2020.1.3,144.1594074261375,
stimoli/01.full/F03-Fear-Face Forward.mp4,fear,full,femmina,2,6,720,576,30,,,,,,,,,,,,,,,,,1,0,1,0,,,,,,,,,0,33,33,29,,,0.0015107982435438316,0.0055742117401678115,3058.9225148196383,None,0.006192720429680776,0.012635358914849348,-104.0,-157.0,1,0,0,1.853674776815751,click_1,0.006192720429680776,None,3064.948003766731,None,3064.948003766731,None,0.005418461991212098,0.011064711197832366,3066.8018668160003,None,0.006124082774476847,0.012501932436862262,16.0,-94.0,1,0,0,1.421351828295883,click_2,0.006124082774476847,None,3067.3037299756033,None,3067.3037299756033,None,3067.3037299756033,None,0.005385426105931401,0.01103841078656842,,,07_control,001,control,26,f,17,1,filo e ali,2023_Mar_24_1440,CPO_EEG,2020.1.3,144.1594074261375,
stimoli/02.subtle/JM1_Happiness.mp4,happy,subtle,maschio,7,10,1646,926,15,,,,,,,,,,,,,,,,,1,0,1,0,,,,,,,,,0,34,34,14,,,0.0017372383699694183,0.005393636969529325,3070.3136984728444,None,0.006220303788722958,0.012694374468992464,56.0,34.0,1,0,0,3.0942170528032875,click_1,0.006220303788722958,None,3080.7395653119383,None,3080.7395653119383,None,0.00541429241275182,0.011036807103664614,3083.8339584491987,None,0.006138515924249077,0.012496800649387296,64.0,12.0,1,0,0,0.8776848068955587,click_2,0.006138515924249077,None,3084.3357292366272,None,3084.3357292366272,None,3084.3357292366272,None,0.005505381643160945,0.011279925536655355,,,07_control,001,control,26,f,17,1,filo e ali,2023_Mar_24_1440,CPO_EEG,2020.1.3,144.1594074261375,
stimoli/01.full/F03-Joy-Face Forward.mp4,happy,full,femmina,2,6,720,576,42,,,,,,,,,,,,,,,,,1,0,1,0,,,,,,,,,0,35,35,41,,,0.005568759217567276,0.009185707203869242,3086.7983496171364,None,0.006159043077786919,0.012536892740172334,153.0,109.0,1,0,0,0.7731640869787952,click_1,0.006159043077786919,None,3092.824023629313,None,3092.824023629313,None,0.005499287643033313,0.011220589243748691,3093.5975764491996,None,0.006110611826443346,0.01249166886191233,179.0,106.0,1,0,0,0.7244351986737456,click_2,0.006110611826443346,None,3094.099435439224,None,3094.099435439224,None,3094.099435439224,None,0.005418461991212098,0.011097747079475084,,,07_control,001,control,26,f,17,1,filo e ali,2023_Mar_24_1440,CPO_EEG,2020.1.3,144.1594074261375,
stimoli/01.full/M02-Anger-Face Forward.mp4,angry,full,maschio,3,6,720,576,35,,,,,,,,,,,,,,,,,1,0,1,0,,,,,,,,,0,36,36,34,,,0.005360921823012177,0.008977228335425025,3096.4088334741355,None,0.00616609928329126,0.012567362729896558,-9.0,62.0,1,0,0,5.638224375859863,click_1,0.00616609928329126,None,3102.434634498055,None,3102.434634498055,None,0.005406594726082403,0.011053806145355338,3108.0730808237277,None,0.006120233931142138,0.012475632029236294,0.0,0.0,1,0,0,0.5642689031010377,click_2,0.006120233931142138,None,3108.574894910613,None,3108.574894910613,None,3108.574894910613,None,0.005393123788962839,0.011018845849321224,,,07_control,001,control,26,f,17,1,filo e ali,2023_Mar_24_1440,CPO_EEG,2020.1.3,144.1594074261375,
stimoli/02.subtle/JF2_Happiness.mp4,happy,subtle,femmina,6,9,1646,926,14,,,,,,,,,,,,,,,,,1,0,1,0,,,,,,,,,0,37,37,13,,,0.0003965588766732253,0.004509365830017487,3110.7297376181195,None,0.00622351115453057,0.01268507310305722,124.0,81.0,1,0,0,2.0139655182356364,click_1,0.00622351115453057,None,3120.2331005426204,None,3120.2331005426204,None,0.005454705238662427,0.011129820752103115,3122.247274860463,None,0.006104838568717241,0.012451897509890841,101.0,-16.0,1,0,0,0.6338488855362812,click_2,0.006104838568717241,None,3122.749044364944,None,3122.749044364944,None,3122.749044364944,None,0.0054072362036095,0.011075936981796985,,,07_control,001,control,26,f,17,1,filo e ali,2023_Mar_24_1440,CPO_EEG,2020.1.3,144.1594074261375,
stimoli/02.subtle/JM1_Neutral.mp4,neutral,subtle,maschio,7,10,1646,926,27,,,,,,,,,,,,,,,,,1,0,1,0,,,,,,,,,0,38,38,26,,,0.004398711665999144,0.007837330034817569,3124.9687073219684,None,0.006219983053597389,0.012664225218031788,-64.0,11.0,1,0,0,1.9303308527560148,click_1,0.006219983053597389,None,3135.39628368778,None,3135.39628368778,None,0.005469779862323776,0.011151310111017665,3137.32682013277,None,0.006120554669905687,0.012482688234740635,8.0,0.0,1,0,0,0.4317356795872911,click_2,0.006120554669905687,None,3137.8285845054634,None,3137.8285845054634,None,3137.8285845054634,None,0.0054306499878293835,0.01111282171041239,,,07_control,001,control,26,f,17,1,filo e ali,2023_Mar_24_1440,CPO_EEG,2020.1.3,144.1594074261375,
stimoli/02.subtle/JM2_Disgust.mp4,disgusted,subtle,maschio,8,10,1646,926,12,,,,,,,,,,,,,,,,,1,0,1,0,,,,,,,,,0,39,39,11,,,0.004963849762134487,0.008392846029892098,3139.845549232763,None,0.0061972107432666235,0.01265620679987478,-51.0,82.0,1,0,0,1.8466156823560596,click_1,0.0061972107432666235,None,3150.468108185778,None,3150.468108185778,None,0.005469138392072637,0.011169271368999034,3152.3149515912046,None,0.006109008147177519,0.012485254130297108,-13.0,-100.0,1,0,0,0.9336209700231848,click_2,0.006109008147177519,None,3152.8167772246125,None,3152.8167772246125,None,3152.8167772246125,None,0.005389595684391679,0.010999922378687188,,,07_control,001,control,26,f,17,1,filo e ali,2023_Mar_24_1440,CPO_EEG,2020.1.3,144.1594074261375,
stimoli/01.full/F03-Disgust-Face Forward.mp4,disgusted,full,femmina,2,6,720,576,38,,,,,,,,,,,,,,,,,1,0,1,0,,,,,,,,,0,40,40,37,,,0.001052850355335977,0.005010420736653032,3155.33345072297,None,0.006192720429680776,0.012600719346664846,-114.0,67.0,1,0,0,2.7039135011546023,click_1,0.006192720429680776,None,3161.3548759358273,None,3161.3548759358273,None,0.005454384499898879,0.011170233578013722,3164.059069760875,None,0.006124403509602416,0.012489423705119407,10.0,-6.0,1,0,0,0.8081029000386479,click_2,0.006124403509602416,None,3164.5608290017844,None,3164.5608290017844,None,3164.5608290017844,None,0.00544315871593426,0.011137839170260122,,,07_control,001,control,26,f,17,1,filo e ali,2023_Mar_24_1440,CPO_EEG,2020.1.3,144.1594074261375,
stimoli/02.subtle/JF1_Neutral.mp4,neutral,subtle,femmina,5,10,1646,926,25,,,,,,,,,,,,,,,,,1,0,1,0,,,,,,,,,0,41,41,24,,,0.0032501534769835416,0.006947606376343174,3166.9561318766755,None,0.006193361907207873,0.012657169012527447,38.0,177.0,1,0,0,2.97555986198131,click_1,0.006193361907207873,None,3177.778034474064,None,3177.778034474064,None,0.005462082182930317,0.011153876006574137,3180.753791268391,None,0.006127610879048007,0.012496800653025275,42.0,201.0,1,0,0,1.4353385151553084,click_2,0.006127610879048007,None,3181.2556002234887,None,3181.2556002234887,None,3181.2556002234887,None,0.005378049161663512,0.011022053215128835,,,07_control,001,control,26,f,17,1,filo e ali,2023_Mar_24_1440,CPO_EEG,2020.1.3,144.1594074261375,
stimoli/02.subtle/JM2_Surprise.mp4,surprised,subtle,maschio,8,10,1646,926,24,,,,,,,,,,,,,,,,,1,0,1,0,,,,,,,,,0,42,42,23,,,0.0038986189720162656,0.0074729089756147005,3184.2841473951994,None,0.006194644847710151,0.012634075963433133,23.0,-141.0,1,0,0,2.1115204780762724,click_1,0.006194644847710151,None,3195.270539498404,None,3195.270539498404,None,0.0054726664966437966,0.011164460320287617,3197.382275832293,None,0.006126648662757361,0.012485254126659129,-58.0,11.0,1,0,0,1.7212839604035253,click_2,0.006126648662757361,None,3197.8840466197216,None,3197.8840466197216,None,3197.8840466197216,None,0.0053985763115633745,0.011004412695911014,,,07_control,001,control,26,f,17,1,filo e ali,2023_Mar_24_1440,CPO_EEG,2020.1.3,144.1594074261375,
stimoli/01.full/M02-Fear-Face Forward.mp4,fear,full,maschio,3,6,720,576,31,,,,,,,,,,,,,,,,,1,0,1,0,,,,,,,,,0,43,43,30,,,0.0009585537591192406,0.005035438200138742,3201.1885739468125,None,0.0061830983286199626,0.012586927667143755,-107.0,-179.0,1,0,0,1.7002651209695614,click_1,0.0061830983286199626,None,3207.2132129415986,None,3207.2132129415986,None,0.00548934480684693,0.011190119257662445,3208.913741066681,None,0.006109649621066637,0.012457670771254925,-125.0,-157.0,1,0,0,1.5538141689939948,click_2,0.006109649621066637,None,3209.4155288531547,None,3209.4155288531547,None,3209.4155288531547,None,0.0054033873639127705,0.011035844894649927,,,07_control,001,control,26,f,17,1,filo e ali,2023_Mar_24_1440,CPO_EEG,2020.1.3,144.1594074261375,
stimoli/02.subtle/JF2_Neutral.mp4,neutral,subtle,femmina,6,9,1646,926,26,,,,,,,,,,,,,,,,,1,0,1,0,,,,,,,,,0,44,44,25,,,0.002104866798617877,0.006108623267209623,3212.585107488496,None,0.006207153586728964,0.012634075967071112,0.0,3.0,1,0,0,2.369334747138055,click_1,0.006207153586728964,None,3222.0876178947983,None,3222.0876178947983,None,0.0054335366148734465,0.011127254860184621,3224.4572307206763,None,0.00611285698323627,0.012469538025470683,0.0,0.0,1,0,0,0.3901367685502919,click_2,0.00611285698323627,None,3224.9589668685367,None,3224.9589668685367,None,3224.9589668685367,None,0.005272526781482156,0.010760973524156725,,,07_control,001,control,26,f,17,1,filo e ali,2023_Mar_24_1440,CPO_EEG,2020.1.3,144.1594074261375,
stimoli/02.subtle/JM1_Sadness.mp4,sad,subtle,maschio,7,10,1646,926,19,,,,,,,,,,,,,,,,,1,0,1,0,,,,,,,,,0,45,45,18,,,0.003614189652580535,0.007022979505563853,3226.9354732245774,None,0.006220945258974098,0.012694374468992464,-79.0,-54.0,1,0,0,1.8258046803166508,click_1,0.006220945258974098,None,3237.3568016390927,None,3237.3568016390927,None,0.00544957345482544,0.011151630849781213,3239.18282345817,None,0.0061109325688448735,0.012462481823604321,0.0,1.0,1,0,0,0.6408162492953124,click_2,0.0061109325688448735,None,3239.6846051506473,None,3239.6846051506473,None,3239.6846051506473,None,0.005435140297777252,0.011114746124803787,,,07_control,001,control,26,f,17,1,filo e ali,2023_Mar_24_1440,CPO_EEG,2020.1.3,144.1594074261375,
stimoli/01.full/M02-Sadness-Face Forward.mp4,sad,full,maschio,3,6,720,576,47,,,,,,,,,,,,,,,,,1,0,1,0,,,,,,,,,0,46,46,46,,,0.000522351823747158,0.004322440476244083,3241.9086779168283,None,0.006203304739756277,0.012622529440704966,-50.0,-81.0,1,0,0,3.4566723180505505,click_1,0.006203304739756277,None,3247.5745077813917,None,3247.5745077813917,None,0.005406273990956834,0.011080748034146382,3251.031424821558,None,0.00610515930748079,0.012450293826987036,0.0,0.0,1,0,0,0.5781590482074535,click_2,0.00610515930748079,None,3251.5332488512795,None,3251.5332488512795,None,3251.5332488512795,None,0.005366502642573323,0.010996073542628437,,,07_control,001,control,26,f,17,1,filo e ali,2023_Mar_24_1440,CPO_EEG,2020.1.3,144.1594074261375,
stimoli/02.subtle/JF2_Sadness.mp4,sad,subtle,femmina,6,8,1646,926,18,,,,,,,,,,,,,,,,,1,0,1,0,,,,,,,,,0,47,47,17,,,0.0009219256244250573,0.00480925466035842,3253.701269989113,None,0.006192078955791658,0.012630547858861974,-221.0,-37.0,1,0,0,1.5330846340802964,click_1,0.006192078955791658,None,3262.085943649123,None,3262.085943649123,None,0.005391199367295485,0.011036486364901066,3263.619278457845,None,0.005911434327572351,0.01207310744212009,-125.0,-84.0,1,0,0,2.3202568972810695,click_2,0.005911434327572351,None,3264.121059829584,None,3264.121059829584,None,3264.121059829584,None,0.005298506457620533,0.010828648973983945,,,07_control,001,control,26,f,17,1,filo e ali,2023_Mar_24_1440,CPO_EEG,2020.1.3,144.1594074261375,
stimoli/01.full/F03-Anger-Face Forward.mp4,angry,full,femmina,2,6,720,576,34,,,,,,,,,,,,,,,,,1,0,1,0,,,,,,,,,0,48,48,33,,,0.00036647377783083357,0.0040703414160816465,3268.024794231358,None,0.006145251394627849,0.012514441168605117,-18.0,95.0,1,0,0,2.111671865812241,click_1,0.006145251394627849,None,3274.049651006375,None,3274.049651006375,None,0.005236604269157397,0.010715428907133173,3276.1614569401318,None,0.006092650572099956,0.012426559304003604,-34.0,-55.0,1,0,0,2.578343792556552,click_2,0.006092650572099956,None,3276.6631873147344,None,3276.6631873147344,None,3276.6631873147344,None,0.005363616011891281,0.010943151981336996,,,07_control,001,control,26,f,17,1,filo e ali,2023_Mar_24_1440,CPO_EEG,2020.1.3,144.1594074261375,
stimoli/01.full/M03-Anger-Face Forward.mp4,angry,full,maschio,4,6,720,576,36,,,,,,,,,,,,,,,,,1,0,1,0,,,,,,,,,0,49,49,35,,,0.004717523966974113,0.008326453531481093,3280.8271585100083,None,0.0062084365272312425,0.012630227123736404,-45.0,188.0,1,0,0,0.8501008075509162,click_1,0.0062084365272312425,None,3286.8533296641035,None,3286.8533296641035,None,0.005506664590939181,0.011242720080190338,3287.7036902683976,None,0.006112536244472722,0.0124743490741821,-33.0,185.0,1,0,0,0.9614599550586718,click_2,0.006112536244472722,None,3288.2054504715124,None,3288.2054504715124,None,3288.2054504715124,None,0.005410443569417112,0.011034241208108142,,,07_control,001,control,26,f,17,1,filo e ali,2023_Mar_24_1440,CPO_EEG,2020.1.3,144.1594074261375,
stimoli/02.subtle/JM2_Fear.mp4,fear,subtle,maschio,8,10,1646,926,4,,,,,,,,,,,,,,,,,1,0,1,0,,,,,,,,,0,50,50,3,,,0.0007586706342408434,0.0042963966516254,3290.756393084659,None,0.006165778544527711,0.012548118524136953,-118.0,-84.0,1,0,0,1.7490693824074697,click_1,0.006165778544527711,None,3301.3812305513275,None,3301.3812305513275,None,0.005479722702148138,0.011172478734806646,3303.130580257628,None,0.0060878395233885385,0.012426559307641583,-99.0,-18.0,1,0,0,1.4494377806040575,click_2,0.0060878395233885385,None,3303.632407494719,None,3303.632407494719,None,3303.632407494719,None,0.0053453340151463635,0.010932246932497947,,,07_control,001,control,26,f,17,1,filo e ali,2023_Mar_24_1440,CPO_EEG,2020.1.3,144.1594074261375,
stimoli/01.full/F03-Sadness-Face Forward.mp4,sad,full,femmina,2,6,720,576,46,,,,,,,,,,,,,,,,,1,0,1,0,,,,,,,,,0,51,51,45,,,0.0014819319403613918,0.0056364346673944965,3306.6714097212716,None,0.00619464485134813,0.012619642813660903,-33.0,-203.0,1,0,0,1.0521585260503343,click_1,0.00619464485134813,None,3312.6962161406263,None,3312.6962161406263,None,0.00547523238856229,0.011182742309756577,3313.7486434440434,None,0.006112856990512228,0.012479480868933024,-49.0,-208.0,1,0,0,1.010181787158217,click_2,0.006112856990512228,None,3314.250384723695,None,3314.250384723695,None,3314.250384723695,None,0.005405953259469243,0.011065673410485033,,,07_control,001,control,26,f,17,1,filo e ali,2023_Mar_24_1440,CPO_EEG,2020.1.3,144.1594074261375,
stimoli/01.full/M03-Sadness-Face Forward.mp4,sad,full,maschio,4,6,720,576,48,,,,,,,,,,,,,,,,,1,0,1,0,,,,,,,,,0,52,52,47,,,0.006473878238466568,0.010241893218335463,3316.84467265931,None,0.006201380318088923,0.01265299943042919,-21.0,-96.0,1,0,0,1.7211421947758936,click_1,0.006201380318088923,None,3322.8697427242478,None,3322.8697427242478,None,0.00547170428399113,0.011210967139049899,3324.5911498475543,None,0.006107404460635735,0.012457029297365807,-18.0,-88.0,1,0,0,0.9405947485138313,click_2,0.006107404460635735,None,3325.0928888820454,None,3325.0928888820454,None,3325.0928888820454,None,0.005330259387847036,0.010891192629060242,,,07_control,001,control,26,f,17,1,filo e ali,2023_Mar_24_1440,CPO_EEG,2020.1.3,144.1594074261375,
stimoli/02.subtle/JF1_Fear.mp4,fear,subtle,femmina,5,10,1646,926,1,,,,,,,,,,,,,,,,,1,0,1,0,,,,,,,,,0,53,53,0,,,0.0017641802551224828,0.0053631669834430795,3327.6219553265073,None,0.006203625482157804,0.012643056597880786,-115.0,-168.0,1,0,0,2.3484547867083165,click_1,0.006203625482157804,None,3338.4484226488858,None,3338.4484226488858,None,0.005469779862323776,0.011200062093848828,3340.7971452507554,None,0.006139478136901744,0.012537534214061452,-55.0,-37.0,1,0,0,1.1705533542335615,click_2,0.006139478136901744,None,3341.298886209668,None,3341.298886209668,None,3341.298886209668,None,0.005422631566034397,0.011059258675231831,,,07_control,001,control,26,f,17,1,filo e ali,2023_Mar_24_1440,CPO_EEG,2020.1.3,144.1594074261375,
stimoli/02.subtle/JM2_Happiness.mp4,happy,subtle,maschio,8,10,1646,926,16,,,,,,,,,,,,,,,,,1,0,1,0,,,,,,,,,0,54,54,15,,,0.0016968255404208321,0.005097917714010691,3344.0578487161874,None,0.006189833802636713,0.012654282381845405,29.0,131.0,1,0,0,4.815850295497512,click_1,0.006189833802636713,None,3354.6855779451143,None,3354.6855779451143,None,0.0054328951409843285,0.011100633710157126,3359.501605928752,None,0.006112215512985131,0.01246312329385546,54.0,35.0,1,0,0,1.3727127462698263,click_2,0.006112215512985131,None,3360.0034825592993,None,3360.0034825592993,None,3360.0034825592993,None,0.005390878632169915,0.011015317744750064,,,07_control,001,control,26,f,17,1,filo e ali,2023_Mar_24_1440,CPO_EEG,2020.1.3,144.1594074261375,
stimoli/02.subtle/JF2_Anger.mp4,angry,subtle,femmina,6,9,1646,926,6,,,,,,,,,,,,,,,,,1,0,1,0,,,,,,,,,0,55,55,5,,,1.2637028703466058e-05,0.003931398267013719,3362.967022491983,None,0.006190475272887852,0.012649792064621579,-56.0,189.0,1,0,0,1.1149456255043333,click_1,0.006190475272887852,None,3372.470873257036,None,3372.470873257036,None,0.005491910698765423,0.01119589251538855,3373.5860398701407,None,0.006135950032330584,0.012500008022470865,-56.0,183.0,1,0,0,1.0381073711068893,click_2,0.006135950032330584,None,3374.0877779424227,None,3374.0877779424227,None,3374.0877779424227,None,0.0053886334753769916,0.011007940800482174,,,07_control,001,control,26,f,17,1,filo e ali,2023_Mar_24_1440,CPO_EEG,2020.1.3,144.1594074261375,
,,,,,,,,,,,,,,,,,,,,,,,,,1,0,1,0,,,,,,,,,,,,,,,,,,,,,,,,,,,,,,,,,,,,,,,,,,,,,,,,,,,,,,,,,,,07_control,001,control,26,f,17,1,filo e ali,2023_Mar_24_1440,CPO_EEG,2020.1.3,144.1594074261375,
