file,file_emotion,file_emotion_level,file_gender,file_id,file_duration,size_w,size_h,trigger,loop_practice_full.thisRepN,loop_practice_full.thisTrialN,loop_practice_full.thisN,loop_practice_full.thisIndex,loop_istr_practice.thisRepN,loop_istr_practice.thisTrialN,loop_istr_practice.thisN,loop_istr_practice.thisIndex,tuto.thisRepN,tuto.thisTrialN,tuto.thisN,tuto.thisIndex,loop_practice.thisRepN,loop_practice.thisTrialN,loop_practice.thisN,loop_practice.thisIndex,exp_blocks.thisRepN,exp_blocks.thisTrialN,exp_blocks.thisN,exp_blocks.thisIndex,istr_1.thisRepN,istr_1.thisTrialN,istr_1.thisN,istr_1.thisIndex,istr_2.thisRepN,istr_2.thisTrialN,istr_2.thisN,istr_2.thisIndex,exp.thisRepN,exp.thisTrialN,exp.thisN,exp.thisIndex,img_tutorial.started,key_resp.started,p_port.started,mov_target.started,p_port.stopped,p_port_2.started,primary.started,img_primary_wheel.started,click_1.started,p_port_2.stopped,primary.x,primary.y,primary.leftButton,primary.midButton,primary.rightButton,primary.time,primary.clicked_name,p_port_4.started,txt_iwi.started,p_port_4.stopped,txt_iwi.stopped,img_secondary_wheel.started,click_2.started,primary_pos.started,p_port_3.started,p_port_3.stopped,secondary.started,secondary.x,secondary.y,secondary.leftButton,secondary.midButton,secondary.rightButton,secondary.time,secondary.clicked_name,p_port_5.started,p_port_5.stopped,kb_end_practice.keys,kb_end_practice.rt,participant,session,group,age,sex,education,practice,experimenter,date,expName,psychopyVersion,frameRate,
stimoli/03.practice/F04-Neutral-Face Forward.mp4,neutral,full,femmina,9,6,700,700,62,0,0,0,0,,,,,,,,,0,0,0,5,,,,,,,,,,,,,,,,,155.65129939999315,155.65129939999315,0.5675596999935806,158.4483426999941,0.57547519999207,0.0007934999885037541,0.0007934999885037541,164.39883869999903,164.39883869999903,0.0161581999855116,-50.0,-81.0,1,0,0,8.428552199999103,'click_1',3.170000854879618e-05,172.82042619999265,0.0063415000040549785,173.32230010000058,173.32230010000058,173.32230010000058,173.32230010000058,0.008242799987783656,0.008242799987783656,0.008242799987783656,-22.0,107.0,1,0,0,13.583302899991395,'click_2',1.659998088143766e-05,0.015258400002494454,,,12,001,control,22,m,13,1,ila ale,2024-03-07_13h12.15.014,CPO_EEG,2022.2.1,59.89171577608033,
stimoli/03.practice/F04-Joy-Face Forward.mp4,joy,full,femmina,9,6,700,700,59,0,0,0,0,,,,,,,,,0,1,1,2,,,,,,,,,,,,,,,,,,,0.14488330000313,188.55899910000153,0.15216890000738204,0.0006820000126026571,0.0006820000126026571,194.54315109999152,194.54315109999152,0.016465500026242808,116.0,73.0,1,0,0,4.149613099987619,'click_1',1.3999990187585354e-05,198.69323919998715,0.015430100000230595,,199.1951490000065,199.1951490000065,199.1951490000065,0.001501599996117875,0.017363299994030967,0.001501599996117875,59.0,83.0,1,0,0,2.1241007999924477,'click_2',1.3999990187585354e-05,0.015417999995406717,,,12,001,control,22,m,13,1,ila ale,2024-03-07_13h12.15.014,CPO_EEG,2022.2.1,59.89171577608033,
stimoli/03.practice/F04-Anger-Face Forward.mp4,anger,full,femmina,9,6,700,700,57,0,0,0,0,,,,,,,,,0,2,2,0,,,,,,,,,,,,,,,,,,,0.13704789997427724,202.94867369998246,0.14440579997608438,0.0007213999924715608,0.0007213999924715608,208.92485209999722,208.92485209999722,0.016508600005181506,-23.0,153.0,1,0,0,2.7935843000013847,'click_1',1.4099990949034691e-05,211.7192138999817,0.015786999982083216,,212.22114069998497,212.22114069998497,212.22114069998497,0.0016158999933395535,0.017698299983749166,0.0016158999933395535,-124.0,85.0,1,0,0,3.1796999000071082,'click_2',1.6900012269616127e-05,0.014565100020263344,,,12,001,control,22,m,13,1,ila ale,2024-03-07_13h12.15.014,CPO_EEG,2022.2.1,59.89171577608033,
stimoli/03.practice/F04-Surprise-Face Forward.mp4,surprise,full,femmina,9,6,700,700,61,0,0,0,0,,,,,,,,,0,3,3,4,,,,,,,,,,,,,,,,,,,0.14995390002150089,217.0427712999808,0.15729310002643615,0.0007171999895945191,0.0007171999895945191,223.22311930000433,223.22311930000433,0.016501399979460984,52.0,-188.0,1,0,0,5.671784000005573,'click_1',1.5700003132224083e-05,228.8954953000066,0.015551999997114763,,229.39735839999048,229.39735839999048,229.39735839999048,0.001498800003901124,0.017439299990655854,0.001498800003901124,24.0,-152.0,1,0,0,7.328100299986545,'click_2',1.3899989426136017e-05,0.015684599988162518,,,12,001,control,22,m,13,1,ila ale,2024-03-07_13h12.15.014,CPO_EEG,2022.2.1,59.89171577608033,
stimoli/03.practice/F04-Sadness-Face Forward.mp4,sadness,full,femmina,9,6,700,700,60,0,0,0,0,,,,,,,,,0,4,4,3,,,,,,,,,,,,,,,,,,,0.13822230001096614,238.3558927999984,0.14554890000727028,0.0007156999781727791,0.0007156999781727791,244.3304027999984,244.3304027999984,0.016385599999921396,-20.0,-129.0,1,0,0,4.499840300006326,'click_1',1.4099990949034691e-05,248.8309706999862,0.015529799973592162,,249.33300660000532,249.33300660000532,249.33300660000532,0.0016505999956279993,0.01757459997315891,0.0016505999956279993,-121.0,-77.0,1,0,0,3.1618880000023637,'click_2',1.4099990949034691e-05,0.015862600004766136,,,12,001,control,22,m,13,1,ila ale,2024-03-07_13h12.15.014,CPO_EEG,2022.2.1,59.89171577608033,
stimoli/03.practice/F04-Disgust-Face Forward.mp4,disgust,full,femmina,9,6,700,700,58,0,0,0,0,,,,,,,,,0,5,5,1,,,,,,,,,,,,,,,,,,,0.1472795000008773,254.1343963999825,0.15465529999346472,0.0007252999930642545,0.0007252999930642545,260.1182543000032,260.1182543000032,0.01639849998173304,-128.0,80.0,1,0,0,2.8439106000005268,'click_1',1.4299992471933365e-05,262.96281029999955,0.015479099994990975,,263.4645879000018,263.4645879000018,263.4645879000018,0.0013808000076096505,0.017323300009593368,0.0013808000076096505,-79.0,127.0,1,0,0,1.4232591000036336,'click_2',1.3899989426136017e-05,0.014493800001218915,,,12,001,control,22,m,13,1,ila ale,2024-03-07_13h12.15.014,CPO_EEG,2022.2.1,59.89171577608033,
,,,,,,,,,0,0,0,0,,,,,,,,,,,,,,,,,,,,,,,,,,,,,,,,,,,,,,,,,,,,,,,,,,,,,,,,,,,,,,,,,n,80.66786399998819,12,001,control,22,m,13,1,ila ale,2024-03-07_13h12.15.014,CPO_EEG,2022.2.1,59.89171577608033,
,,,,,,,,,,,,,,,,,,,,,,,,,0,0,0,0,0,0,0,0,,,,,,,,,,,,,,,,,,,,,,,,,,,,,,,,,,,,,,,,,,,,,,,12,001,control,22,m,13,1,ila ale,2024-03-07_13h12.15.014,CPO_EEG,2022.2.1,59.89171577608033,
stimoli/02.subtle/JF2_Disgust.mp4,disgusted,subtle,femmina,6,10,1646,926,10,,,,,,,,,,,,,,,,,0,0,0,0,,,,,,,,,0,0,0,9,,,0.1557879000029061,355.28001059999224,0.1629151999950409,0.000725900026736781,0.000725900026736781,365.66037110000616,365.66037110000616,0.01653170000645332,-119.0,84.0,1,0,0,4.2496593999967445,'click_1',1.4199991710484028e-05,369.9107490000024,0.015372900001239032,,370.41290150000714,370.41290150000714,370.41290150000714,0.0015256000042427331,0.01758499999414198,0.0015256000042427331,-53.0,82.0,1,0,0,5.672730899997987,'click_2',1.789999078027904e-05,0.015156500012381002,,,12,001,control,22,m,13,1,ila ale,2024-03-07_13h12.15.014,CPO_EEG,2022.2.1,59.89171577608033,
stimoli/02.subtle/JM2_Sadness.mp4,sad,subtle,maschio,8,10,1646,926,20,,,,,,,,,,,,,,,,,0,0,0,0,,,,,,,,,0,1,1,19,,,0.14463769999565557,377.7227217000036,0.15196769998874515,0.000665700004901737,0.000665700004901737,388.30838430000586,388.30838430000586,0.016506000014487654,-32.0,-191.0,1,0,0,1.9738115999789443,'click_1',1.4099990949034691e-05,390.2826049999858,0.015455300017492846,,390.78462940000463,390.78462940000463,390.78462940000463,0.0016673000063747168,0.017491200007498264,0.0016673000063747168,-137.0,-22.0,1,0,0,3.3961917999840807,'click_2',1.4300021575763822e-05,0.015563600027235225,,,12,001,control,22,m,13,1,ila ale,2024-03-07_13h12.15.014,CPO_EEG,2022.2.1,59.89171577608033,
stimoli/02.subtle/JF1_Sadness.mp4,sad,subtle,femmina,5,10,1646,926,17,,,,,,,,,,,,,,,,,0,0,0,0,,,,,,,,,0,2,2,16,,,0.14559330002521165,395.8187657999806,0.15297750002355315,0.0007228000031318516,0.0007228000031318516,406.60480709999683,406.60480709999683,0.016498699988005683,-103.0,-158.0,1,0,0,1.9906797999865375,'click_1',1.4699995517730713e-05,408.5960780000023,0.015477299981284887,,409.0981319999846,409.0981319999846,409.0981319999846,0.001599799987161532,0.017538899992359802,0.001599799987161532,-109.0,-76.0,1,0,0,1.4051488999975845,'click_2',1.3899989426136017e-05,0.015689499996369705,,,12,001,control,22,m,13,1,ila ale,2024-03-07_13h12.15.014,CPO_EEG,2022.2.1,59.89171577608033,
stimoli/02.subtle/JM2_Neutral.mp4,neutral,subtle,maschio,8,10,1646,926,28,,,,,,,,,,,,,,,,,0,0,0,0,,,,,,,,,0,3,3,27,,,0.14074030000483617,412.13619879999897,0.148001599998679,0.0007459000044036657,0.0007459000044036657,423.0774645000056,423.0774645000056,0.0164383000228554,-3.0,1.0,1,0,0,8.534660700010136,'click_1',1.4400022337213159e-05,431.612701999984,0.015439400012837723,,432.11461150000105,432.11461150000105,432.11461150000105,0.0014134999946691096,0.017369400011375546,0.0014134999946691096,0.0,0.0,1,0,0,1.33779130000039,'click_2',1.4499993994832039e-05,0.015630599984433502,,,12,001,control,22,m,13,1,ila ale,2024-03-07_13h12.15.014,CPO_EEG,2022.2.1,59.89171577608033,
stimoli/01.full/F01-Anger-Face Forward.mp4,angry,full,femmina,1,6,720,576,33,,,,,,,,,,,,,,,,,0,0,0,0,,,,,,,,,0,4,4,32,,,0.1444941999798175,435.08900839998387,0.15177239998592995,0.0006256999913603067,0.0006256999913603067,441.0748098999902,441.0748098999902,0.016490999987581745,-32.0,176.0,1,0,0,5.472266600001603,'click_1',1.4599994756281376e-05,446.5476253000088,0.015553999983239919,,447.0493801999837,447.0493801999837,447.0493801999837,0.001406499999575317,0.017341600003419444,0.001406499999575317,-40.0,187.0,1,0,0,3.380308000021614,'click_2',1.3900018529966474e-05,0.015654299990274012,,,12,001,control,22,m,13,1,ila ale,2024-03-07_13h12.15.014,CPO_EEG,2022.2.1,59.89171577608033,
stimoli/01.full/M03-Joy-Face Forward.mp4,happy,full,maschio,4,6,720,576,44,,,,,,,,,,,,,,,,,0,0,0,0,,,,,,,,,0,5,5,43,,,0.13777070000651293,452.059634300007,0.145073699997738,0.0007388999802060425,0.0007388999802060425,458.03434189999825,458.03434189999825,0.01646079999045469,162.0,109.0,1,0,0,4.567841199983377,'click_1',1.3800017768517137e-05,462.60272409999743,0.015470100013772026,,463.10457890000544,463.10457890000544,463.10457890000544,0.0012578000023495406,0.017330900009255856,0.0012578000023495406,133.0,31.0,1,0,0,2.7607128999952693,'click_2',1.4399993233382702e-05,0.01548559998627752,,,12,001,control,22,m,13,1,ila ale,2024-03-07_13h12.15.014,CPO_EEG,2022.2.1,59.89171577608033,
stimoli/01.full/M03-Surprise-Face Forward.mp4,surprised,full,maschio,4,6,720,576,52,,,,,,,,,,,,,,,,,0,0,0,0,,,,,,,,,0,6,6,51,,,0.13638240000000224,467.4937102999829,0.1437038999865763,0.0007756999984849244,0.0007756999984849244,473.4703504999925,473.4703504999925,0.016481999977258965,44.0,-197.0,1,0,0,3.346249700000044,'click_1',1.4899997040629387e-05,476.817108999996,0.015363399987109005,,477.3189529000083,477.3189529000083,477.3189529000083,0.0012504000042099506,0.017203600000357255,0.0012504000042099506,78.0,-116.0,1,0,0,5.303754799999297,'click_2',1.4399993233382702e-05,0.015656300005503,,,12,001,control,22,m,13,1,ila ale,2024-03-07_13h12.15.014,CPO_EEG,2022.2.1,59.89171577608033,
stimoli/02.subtle/JM1_Disgust.mp4,disgusted,subtle,maschio,7,10,1646,926,11,,,,,,,,,,,,,,,,,0,0,0,0,,,,,,,,,0,7,7,10,,,0.1449706999992486,484.25993259999086,0.15233599999919534,0.0007170000171754509,0.0007170000171754509,494.64503069999046,494.64503069999046,0.01651690001017414,-87.0,121.0,1,0,0,4.283534800022608,'click_1',1.3899989426136017e-05,498.92902939999476,0.01538510000682436,,499.4310257000034,499.4310257000034,499.4310257000034,0.0013641999976243824,0.017425800004275516,0.0013641999976243824,-22.0,96.0,1,0,0,3.7644817999971565,'click_2',1.3900018529966474e-05,0.015326900000218302,,,12,001,control,22,m,13,1,ila ale,2024-03-07_13h12.15.014,CPO_EEG,2022.2.1,59.89171577608033,
stimoli/01.full/F01-Joy-Face Forward.mp4,happy,full,femmina,1,6,720,576,41,,,,,,,,,,,,,,,,,0,0,0,0,,,,,,,,,0,8,8,40,,,0.14463120000436902,504.8325458999898,0.15217570000095293,0.0007265000022016466,0.0007265000022016466,510.8180035999976,510.8180035999976,0.01648599997861311,164.0,114.0,1,0,0,2.2248389000014868,'click_1',1.4299992471933365e-05,513.0433632000058,0.015460800001164898,,513.5451109999849,513.5451109999849,513.5451109999849,0.0013105999969411641,0.017197300010593608,0.0013105999969411641,100.0,-24.0,1,0,0,3.7974467999883927,'click_2',1.3900018529966474e-05,0.015708800026914105,,,12,001,control,22,m,13,1,ila ale,2024-03-07_13h12.15.014,CPO_EEG,2022.2.1,59.89171577608033,
stimoli/01.full/F03-Neutral-Face Forward.mp4,neutral,full,femmina,2,6,720,576,54,,,,,,,,,,,,,,,,,0,0,0,0,,,,,,,,,0,9,9,53,,,0.14330750002409332,518.9783016000001,0.15065280001726933,0.000679899996612221,0.000679899996612221,524.9652004999807,524.9652004999807,0.01649929999257438,-73.0,-126.0,1,0,0,4.499815700022737,'click_1',1.3800017768517137e-05,529.4655711999803,0.015610900009050965,,529.9674910999893,529.9674910999893,529.9674910999893,0.0014865999983157963,0.017550100019434467,0.0014865999983157963,-22.0,-93.0,1,0,0,6.944289999984903,'click_2',1.4100020052865148e-05,0.015424100012751296,,,12,001,control,22,m,13,1,ila ale,2024-03-07_13h12.15.014,CPO_EEG,2022.2.1,59.89171577608033,
stimoli/02.subtle/JF1_Neutral.mp4,neutral,subtle,femmina,5,10,1646,926,25,,,,,,,,,,,,,,,,,0,0,0,0,,,,,,,,,0,10,10,24,,,0.1552596999972593,538.5592705000017,0.16268670000135899,0.0007486000249627978,0.0007486000249627978,549.3365952000022,549.3365952000022,0.01644730000407435,6.0,2.0,1,0,0,10.808652300009271,'click_1',1.580000389367342e-05,560.1458729000005,0.015558099985355511,,560.6476198000018,560.6476198000018,560.6476198000018,0.0014123999862931669,0.017307000001892447,0.0014123999862931669,-5.0,-1.0,1,0,0,0.9364760000025854,'click_2',1.3600016245618463e-05,0.015626100008375943,,,12,001,control,22,m,13,1,ila ale,2024-03-07_13h12.15.014,CPO_EEG,2022.2.1,59.89171577608033,
stimoli/02.subtle/JM2_Surprise.mp4,surprised,subtle,maschio,8,10,1646,926,24,,,,,,,,,,,,,,,,,0,0,0,0,,,,,,,,,0,11,11,23,,,0.16300220001721755,563.2392893999931,0.17022660002112389,0.0006997000018600374,0.0006997000018600374,574.175007199985,574.175007199985,0.01643970000441186,20.0,-103.0,1,0,0,3.4961960000218824,'click_1',1.4200020814314485e-05,577.6720804999932,0.015782700007548556,,578.1740685999976,578.1740685999976,578.1740685999976,0.0017207000055350363,0.01778799999738112,0.0017207000055350363,58.0,-80.0,1,0,0,4.249576500005787,'click_2',1.4599994756281376e-05,0.015488600009121,,,12,001,control,22,m,13,1,ila ale,2024-03-07_13h12.15.014,CPO_EEG,2022.2.1,59.89171577608033,
stimoli/02.subtle/JF2_Neutral.mp4,neutral,subtle,femmina,6,9,1646,926,26,,,,,,,,,,,,,,,,,0,0,0,0,,,,,,,,,0,12,12,25,,,0.1488375999906566,584.0645482999971,0.15616620000218973,0.0007167999865487218,0.0007167999865487218,593.5251965000061,593.5251965000061,0.016330599988577887,-64.0,14.0,1,0,0,5.921781300014118,'click_1',1.3900018529966474e-05,599.447852399986,0.01567530000465922,,599.9496566999878,599.9496566999878,599.9496566999878,0.001531900023110211,0.01748460001545027,0.001531900023110211,-4.0,5.0,1,0,0,1.2210988999868277,'click_2',1.4299992471933365e-05,0.015638000011676922,,,12,001,control,22,m,13,1,ila ale,2024-03-07_13h12.15.014,CPO_EEG,2022.2.1,59.89171577608033,
stimoli/01.full/M02-Fear-Face Forward.mp4,fear,full,maschio,3,6,720,576,31,,,,,,,,,,,,,,,,,0,0,0,0,,,,,,,,,0,13,13,30,,,0.14444420000654645,602.8074206000019,0.15179539998644032,0.0007082000083755702,0.0007082000083755702,608.7935977999878,608.7935977999878,0.016498300014063716,-108.0,-162.0,1,0,0,2.3255890000145882,'click_1',1.4500023098662496e-05,611.1194241000048,0.015214800019748509,,611.6215353999869,611.6215353999869,611.6215353999869,0.0013180999958422035,0.01735280000139028,0.0013180999958422035,-109.0,-162.0,1,0,0,3.479784399998607,'click_2',1.4199991710484028e-05,0.015759500005515292,,,12,001,control,22,m,13,1,ila ale,2024-03-07_13h12.15.014,CPO_EEG,2022.2.1,59.89171577608033,
stimoli/02.subtle/JF1_Anger.mp4,angry,subtle,femmina,5,10,1646,926,5,,,,,,,,,,,,,,,,,0,0,0,0,,,,,,,,,0,14,14,4,,,0.14559999998891726,616.7389099999855,0.15281509998021647,0.0006896000122651458,0.0006896000122651458,627.5242965999932,627.5242965999932,0.01648460002616048,-23.0,141.0,1,0,0,2.977449300000444,'click_1',1.3599987141788006e-05,630.5024078999995,0.015668299980461597,,631.0042984999891,631.0042984999891,631.0042984999891,0.0016892999992705882,0.01758519999566488,0.0016892999992705882,-54.0,-85.0,1,0,0,2.910946399992099,'click_2',1.5400000847876072e-05,0.015443500014953315,,,12,001,control,22,m,13,1,ila ale,2024-03-07_13h12.15.014,CPO_EEG,2022.2.1,59.89171577608033,
stimoli/01.full/M02-Disgust-Face Forward.mp4,disgusted,full,maschio,3,6,720,576,39,,,,,,,,,,,,,,,,,0,0,0,0,,,,,,,,,0,15,15,38,,,0.13844300000346266,635.5460214999912,0.14584040001500398,0.0006984000210650265,0.0006984000210650265,641.5203707999899,641.5203707999899,0.01641160002327524,-117.0,83.0,1,0,0,2.943922599981306,'click_1',1.379998866468668e-05,644.4647877999814,0.015382699988549575,,644.9664821999904,644.9664821999904,644.9664821999904,0.0012252000160515308,0.01707269999315031,0.0012252000160515308,-67.0,114.0,1,0,0,1.3383755999966525,'click_2',1.4400022337213159e-05,0.01550960002350621,,,12,001,control,22,m,13,1,ila ale,2024-03-07_13h12.15.014,CPO_EEG,2022.2.1,59.89171577608033,
stimoli/02.subtle/JF2_Fear.mp4,fear,subtle,femmina,6,10,1646,926,2,,,,,,,,,,,,,,,,,0,0,0,0,,,,,,,,,0,16,16,1,,,0.14731030000257306,647.9445307999849,0.15468750000582077,0.0007065000245347619,0.0007065000245347619,658.3260813000088,658.3260813000088,0.016486500011524186,-24.0,89.0,1,0,0,1.973830100003397,'click_1',1.4599994756281376e-05,660.3004441999947,0.015506199997616932,,660.8023942,660.8023942,660.8023942,0.0013341000012587756,0.01748280000174418,0.0013341000012587756,-94.0,15.0,1,0,0,7.211699899984524,'click_2',1.3599987141788006e-05,0.015689299994846806,,,12,001,control,22,m,13,1,ila ale,2024-03-07_13h12.15.014,CPO_EEG,2022.2.1,59.89171577608033,
stimoli/02.subtle/JM2_Happiness.mp4,happy,subtle,maschio,8,10,1646,926,16,,,,,,,,,,,,,,,,,0,0,0,0,,,,,,,,,0,17,17,15,,,0.1372988999937661,669.6432110999885,0.14443429998937063,0.0006717999931424856,0.0006717999931424856,680.2183309999818,680.2183309999818,0.016476199991302565,87.0,52.0,1,0,0,3.5800252000044566,'click_1',1.4099990949034691e-05,683.799040199985,0.01566040000761859,,684.3010644000024,684.3010644000024,684.3010644000024,0.0016189999878406525,0.01772170001640916,0.0016189999878406525,-148.0,23.0,1,0,0,2.342562200006796,'click_2',1.4500023098662496e-05,0.015514500002609566,,,12,001,control,22,m,13,1,ila ale,2024-03-07_13h12.15.014,CPO_EEG,2022.2.1,59.89171577608033,
stimoli/01.full/F03-Anger-Face Forward.mp4,angry,full,femmina,2,6,720,576,34,,,,,,,,,,,,,,,,,0,0,0,0,,,,,,,,,0,18,18,33,,,0.14238510001450777,688.2780933000031,0.14975730000878684,0.0006624000088777393,0.0006624000088777393,694.2652576999972,694.2652576999972,0.01636589999543503,-30.0,192.0,1,0,0,6.525307300005807,'click_1',1.4099990949034691e-05,700.7913228999823,0.015612399991368875,,701.2930178999959,701.2930178999959,701.2930178999959,0.0013521999935619533,0.017356199998175725,0.0013521999935619533,-81.0,117.0,1,0,0,3.9311946000088938,'click_2',1.4200020814314485e-05,0.015619700017850846,,,12,001,control,22,m,13,1,ila ale,2024-03-07_13h12.15.014,CPO_EEG,2022.2.1,59.89171577608033,
stimoli/02.subtle/JM1_Happiness.mp4,happy,subtle,maschio,7,10,1646,926,15,,,,,,,,,,,,,,,,,0,0,0,0,,,,,,,,,0,19,19,14,,,0.13797219999833032,706.8541634999856,0.14515860000392422,0.0007252000214066356,0.0007252000214066356,717.2283577999915,717.2283577999915,0.016514600021764636,167.0,106.0,1,0,0,2.8938380000181496,'click_1',1.759998849593103e-05,720.1227001000079,0.01543820000370033,,720.624731399992,720.624731399992,720.624731399992,0.0015255000034812838,0.01751839998178184,0.0015255000034812838,212.0,38.0,1,0,0,1.9071722999797203,'click_2',1.4100020052865148e-05,0.015530000004218891,,,12,001,control,22,m,13,1,ila ale,2024-03-07_13h12.15.014,CPO_EEG,2022.2.1,59.89171577608033,
stimoli/01.full/F03-Sadness-Face Forward.mp4,sad,full,femmina,2,6,720,576,46,,,,,,,,,,,,,,,,,0,0,0,0,,,,,,,,,0,20,20,45,,,0.13706390000879765,724.161074899981,0.14435129999765195,0.0007091999868862331,0.0007091999868862331,730.1360241000075,730.1360241000075,0.01647519998368807,-29.0,-196.0,1,0,0,2.5593135000090115,'click_1',1.3999990187585354e-05,732.6960103999882,0.015630000008968636,,733.197851200006,733.197851200006,733.197851200006,0.0014066000003367662,0.01749170001130551,0.0014066000003367662,-27.0,-138.0,1,0,0,4.300279299990507,'click_2',1.3999990187585354e-05,0.015454900014447048,,,12,001,control,22,m,13,1,ila ale,2024-03-07_13h12.15.014,CPO_EEG,2022.2.1,59.89171577608033,
stimoli/02.subtle/JF2_Happiness.mp4,happy,subtle,femmina,6,9,1646,926,14,,,,,,,,,,,,,,,,,0,0,0,0,,,,,,,,,0,21,21,13,,,0.14049489999888465,739.130622800003,0.14771700001438148,0.0006938000151421875,0.0006938000151421875,748.5828036000021,748.5828036000021,0.016462400002637878,106.0,177.0,1,0,0,2.525996699987445,'click_1',1.5300000086426735e-05,751.1093142000027,0.015397399984067306,,751.6112086999929,751.6112086999929,751.6112086999929,0.0013121000083629042,0.01727969999774359,0.0013121000083629042,37.0,-207.0,1,0,0,1.2880834999959916,'click_2',1.5099998563528061e-05,0.015330299997003749,,,12,001,control,22,m,13,1,ila ale,2024-03-07_13h12.15.014,CPO_EEG,2022.2.1,59.89171577608033,
stimoli/01.full/M03-Disgust-Face Forward.mp4,disgusted,full,maschio,4,6,720,576,40,,,,,,,,,,,,,,,,,0,0,0,0,,,,,,,,,0,22,22,39,,,0.14413259999128059,754.5356282999855,0.1514663000125438,0.000750600011087954,0.000750600011087954,760.5209524999955,760.5209524999955,0.016483199986396357,-163.0,121.0,1,0,0,1.455449300003238,'click_1',1.4300021575763822e-05,761.9769530000049,0.015459800022654235,,762.4789938000031,762.4789938000031,762.4789938000031,0.0013903000217396766,0.0175275000219699,0.0013903000217396766,-80.0,116.0,1,0,0,2.927616399974795,'click_2',1.4999997802078724e-05,0.015606400003889576,,,12,001,control,22,m,13,1,ila ale,2024-03-07_13h12.15.014,CPO_EEG,2022.2.1,59.89171577608033,
stimoli/02.subtle/JF2_Anger.mp4,angry,subtle,femmina,6,9,1646,926,6,,,,,,,,,,,,,,,,,0,0,0,0,,,,,,,,,0,23,23,5,,,0.14963920001173392,767.0481972999987,0.15683160000480711,0.0007270000060088933,0.0007270000060088933,776.5082338000066,776.5082338000066,0.016424000001279637,-195.0,43.0,1,0,0,1.655919900018489,'click_1',1.4399993233382702e-05,778.1647506000008,0.01551840000320226,,778.6666227999958,778.6666227999958,778.6666227999958,0.0015471999940928072,0.017409199994290248,0.0015471999940928072,-18.0,145.0,1,0,0,1.2711761000100523,'click_2',1.479999627918005e-05,0.015505399991525337,,,12,001,control,22,m,13,1,ila ale,2024-03-07_13h12.15.014,CPO_EEG,2022.2.1,59.89171577608033,
stimoli/02.subtle/JM2_Anger.mp4,angry,subtle,maschio,8,10,1646,926,8,,,,,,,,,,,,,,,,,0,0,0,0,,,,,,,,,0,24,24,7,,,0.14577490001101978,781.5758352999983,0.15296949999174103,0.0007116000051610172,0.0007116000051610172,792.5118443999963,792.5118443999963,0.01643519999925047,-20.0,134.0,1,0,0,2.8775274000072386,'click_1',1.479999627918005e-05,795.3898865999945,0.01545449998229742,,795.8915137999866,795.8915137999866,795.8915137999866,0.0012424000015016645,0.01709350000601262,0.0012424000015016645,34.0,149.0,1,0,0,9.80397300000186,'click_2',1.4299992471933365e-05,0.015631499991286546,,,12,001,control,22,m,13,1,ila ale,2024-03-07_13h12.15.014,CPO_EEG,2022.2.1,59.89171577608033,
stimoli/01.full/F03-Disgust-Face Forward.mp4,disgusted,full,femmina,2,6,720,576,38,,,,,,,,,,,,,,,,,0,0,0,0,,,,,,,,,0,25,25,37,,,0.14597119999234565,807.33373079999,0.1532864999899175,0.0006759999960195273,0.0006759999960195273,813.3182452000037,813.3182452000037,0.016596000001300126,-83.0,126.0,1,0,0,3.646665900014341,'click_1',1.7499987734481692e-05,816.9652657999832,0.015443299984326586,,817.4671955000085,817.4671955000085,817.4671955000085,0.0014245999918784946,0.01739389999420382,0.0014245999918784946,-115.0,-77.0,1,0,0,3.345774799992796,'click_2',1.3800017768517137e-05,0.015759000001708046,,,12,001,control,22,m,13,1,ila ale,2024-03-07_13h12.15.014,CPO_EEG,2022.2.1,59.89171577608033,
stimoli/01.full/F01-Surprise-Face Forward.mp4,surprised,full,femmina,1,6,720,576,49,,,,,,,,,,,,,,,,,0,0,0,0,,,,,,,,,0,26,26,48,,,0.1438810999970883,822.4489268999896,0.15116420001140796,0.0006570999976247549,0.0006570999976247549,828.4355923999974,828.4355923999974,0.016425600013462827,33.0,-197.0,1,0,0,1.8234493000200018,'click_1',1.4800025383010507e-05,830.259602599981,0.015470800019102171,,830.7617068999971,830.7617068999971,830.7617068999971,0.0015925000188872218,0.017592100019101053,0.0015925000188872218,104.0,-23.0,1,0,0,4.2659504000039306,'click_2',1.3499986380338669e-05,0.015612699993653223,,,12,001,control,22,m,13,1,ila ale,2024-03-07_13h12.15.014,CPO_EEG,2022.2.1,59.89171577608033,
stimoli/01.full/F03-Fear-Face Forward.mp4,fear,full,femmina,2,6,720,576,30,,,,,,,,,,,,,,,,,0,0,0,0,,,,,,,,,0,27,27,29,,,0.1440881000016816,836.6637396999868,0.15125619998434559,0.0007067999977152795,0.0007067999977152795,842.6501979999884,842.6501979999884,0.016524899983778596,-110.0,-169.0,1,0,0,1.7396786999888718,'click_1',1.4499993994832039e-05,844.3907939000055,0.015860000014072284,,844.8925807999913,844.8925807999913,844.8925807999913,0.0017030999879352748,0.01763419999042526,0.0017030999879352748,-117.0,-162.0,1,0,0,6.47549149999395,'click_2',1.4400022337213159e-05,0.01464130001841113,,,12,001,control,22,m,13,1,ila ale,2024-03-07_13h12.15.014,CPO_EEG,2022.2.1,59.89171577608033,
stimoli/02.subtle/JF1_Fear.mp4,fear,subtle,femmina,5,10,1646,926,1,,,,,,,,,,,,,,,,,0,0,0,0,,,,,,,,,0,28,28,0,,,0.14643429999705404,853.006799499999,0.15388950001215562,0.0007201000116765499,0.0007201000116765499,863.7901949000079,863.7901949000079,0.016499799996381626,-143.0,-32.0,1,0,0,6.959448099980364,'click_1',1.4400022337213159e-05,870.7503791000054,0.015667300001950935,,871.2524014000082,871.2524014000082,871.2524014000082,0.0018133000121451914,0.01773630001116544,0.0018133000121451914,-79.0,-57.0,1,0,0,2.7602351999958046,'click_2',1.3999990187585354e-05,0.01537159999134019,,,12,001,control,22,m,13,1,ila ale,2024-03-07_13h12.15.014,CPO_EEG,2022.2.1,59.89171577608033,
stimoli/01.full/M02-Joy-Face Forward.mp4,happy,full,maschio,3,6,720,576,43,,,,,,,,,,,,,,,,,0,0,0,0,,,,,,,,,0,29,29,42,,,0.14763359999051318,875.6525300999929,0.15497279999544844,0.0007348000071942806,0.0007348000071942806,881.6345394999953,881.6345394999953,0.01642659999197349,127.0,78.0,1,0,0,4.215895200002706,'click_1',1.4299992471933365e-05,885.8511564999935,0.015575199999148026,,886.3530792999954,886.3530792999954,886.3530792999954,0.0015687000122852623,0.017545900016557425,0.0015687000122852623,143.0,-35.0,1,0,0,4.0822504999814555,'click_2',1.3999990187585354e-05,0.015529500000411645,,,12,001,control,22,m,13,1,ila ale,2024-03-07_13h12.15.014,CPO_EEG,2022.2.1,59.89171577608033,
stimoli/01.full/F03-Joy-Face Forward.mp4,happy,full,femmina,2,6,720,576,42,,,,,,,,,,,,,,,,,0,0,0,0,,,,,,,,,0,30,30,41,,,0.13660739999613725,892.0641958999913,0.14401719998568296,0.0007051999855320901,0.0007051999855320901,898.039540400001,898.039540400001,0.016443599975900725,118.0,79.0,1,0,0,2.843815700005507,'click_1',1.479999627918005e-05,900.884026899992,0.015596000012010336,,901.3857226999826,901.3857226999826,901.3857226999826,0.0012772000045515597,0.017320599989034235,0.0012772000045515597,57.0,-86.0,1,0,0,5.537824700004421,'click_2',1.3800017768517137e-05,0.015584100008709356,,,12,001,control,22,m,13,1,ila ale,2024-03-07_13h12.15.014,CPO_EEG,2022.2.1,59.89171577608033,
stimoli/02.subtle/JM1_Neutral.mp4,neutral,subtle,maschio,7,10,1646,926,27,,,,,,,,,,,,,,,,,0,0,0,0,,,,,,,,,0,31,31,26,,,0.14625859999796376,908.561855100008,0.15353229999891482,0.0006969000096432865,0.0006969000096432865,918.9446355999971,918.9446355999971,0.016560699994442984,-95.0,21.0,1,0,0,8.282417899987195,'click_1',1.4399993233382702e-05,927.2274626999861,0.015467599994735792,,927.7297612999973,927.7297612999973,927.7297612999973,0.0018233000009786338,0.017794799990952015,0.0018233000009786338,-15.0,62.0,1,0,0,2.342081699986011,'click_2',1.4400022337213159e-05,0.015413000015541911,,,12,001,control,22,m,13,1,ila ale,2024-03-07_13h12.15.014,CPO_EEG,2022.2.1,59.89171577608033,
stimoli/02.subtle/JM1_Fear.mp4,fear,subtle,maschio,7,10,1646,926,3,,,,,,,,,,,,,,,,,0,0,0,0,,,,,,,,,0,32,32,2,,,0.1382512999989558,931.7022544000065,0.14554650001809932,0.00074970000423491,0.00074970000423491,942.0766733000055,942.0766733000055,0.016413900011684746,-80.0,-125.0,1,0,0,1.8228993999946397,'click_1',1.7299986211583018e-05,943.9002964999818,0.015587300003971905,,944.4021261000016,944.4021261000016,944.4021261000016,0.001433900004485622,0.01743859998532571,0.001433900004485622,20.0,-99.0,1,0,0,9.921016199979931,'click_2',1.3999990187585354e-05,0.01543530001072213,,,12,001,control,22,m,13,1,ila ale,2024-03-07_13h12.15.014,CPO_EEG,2022.2.1,59.89171577608033,
stimoli/02.subtle/JF2_Sadness.mp4,sad,subtle,femmina,6,8,1646,926,18,,,,,,,,,,,,,,,,,0,0,0,0,,,,,,,,,0,33,33,17,,,0.14154330000746995,955.9566824999929,0.14869530001305975,0.0007110000005923212,0.0007110000005923212,964.303230199992,964.303230199992,0.016518799995537847,-109.0,-79.0,1,0,0,3.079138300003251,'click_1',2.5900022592395544e-05,967.3823012000066,0.014915600011590868,967.8841880999971,967.8841880999971,967.8841880999971,967.8841880999971,0.0010204999998677522,0.016821700002765283,0.0010204999998677522,-14.0,-64.0,1,0,0,2.760613500024192,'click_2',1.3499986380338669e-05,0.01546500000404194,,,12,001,control,22,m,13,1,ila ale,2024-03-07_13h12.15.014,CPO_EEG,2022.2.1,59.89171577608033,
stimoli/02.subtle/JM2_Fear.mp4,fear,subtle,maschio,8,10,1646,926,4,,,,,,,,,,,,,,,,,0,0,0,0,,,,,,,,,0,34,34,3,,,0.13815519999479875,972.2751052999811,0.1452968000085093,0.0007169000164140016,0.0007169000164140016,982.8493920000037,982.8493920000037,0.016422800021246076,-13.0,-88.0,1,0,0,2.5761011999857146,'click_1',1.4199991710484028e-05,985.4262176000047,0.015566799993393943,,985.92820569998,985.92820569998,985.92820569998,0.0016104999813251197,0.017558099993038923,0.0016104999813251197,-35.0,-51.0,1,0,0,3.9822926000051666,'click_2',3.169997944496572e-05,0.015394299989566207,,,12,001,control,22,m,13,1,ila ale,2024-03-07_13h12.15.014,CPO_EEG,2022.2.1,59.89171577608033,
stimoli/01.full/M02-Anger-Face Forward.mp4,angry,full,maschio,3,6,720,576,35,,,,,,,,,,,,,,,,,0,0,0,0,,,,,,,,,0,35,35,34,,,0.13644629999180324,991.5391304999939,0.14374010000028647,0.0007035000016912818,0.0007035000016912818,997.5142796,997.5142796,0.01643859999603592,-53.0,30.0,1,0,0,5.32005440001376,'click_1',1.3800017768517137e-05,1002.8350542999979,0.015716099995188415,,1003.3368592000043,1003.3368592000043,1003.3368592000043,0.001546700019389391,0.01753760001156479,0.001546700019389391,-37.0,53.0,1,0,0,1.438520800002152,'click_2',1.3899989426136017e-05,0.015418900002259761,,,12,001,control,22,m,13,1,ila ale,2024-03-07_13h12.15.014,CPO_EEG,2022.2.1,59.89171577608033,
stimoli/02.subtle/JM1_Surprise.mp4,surprised,subtle,maschio,7,10,1646,926,23,,,,,,,,,,,,,,,,,0,0,0,0,,,,,,,,,0,36,36,22,,,0.14429160000872798,1006.4118148999987,0.1515067000000272,0.0006959000020287931,0.0006959000020287931,1016.7970630000054,1016.7970630000054,0.016352000006008893,21.0,-139.0,1,0,0,2.191493199992692,'click_1',1.7999991541728377e-05,1018.9892966999905,0.015580899984342977,,1019.4912073999876,1019.4912073999876,1019.4912073999876,0.0015983999765012413,0.017508799995994195,0.0015983999765012413,52.0,-36.0,1,0,0,3.8478063000075053,'click_2',1.4199991710484028e-05,0.015530699980445206,,,12,001,control,22,m,13,1,ila ale,2024-03-07_13h12.15.014,CPO_EEG,2022.2.1,59.89171577608033,
stimoli/01.full/M02-Neutral-Face Forward.mp4,neutral,full,maschio,3,6,720,576,55,,,,,,,,,,,,,,,,,0,0,0,0,,,,,,,,,0,37,37,54,,,0.14544900000328198,1024.9768229000038,0.15292029999545775,0.0007256999961100519,0.0007256999961100519,1030.962403099984,1030.962403099984,0.016447900008643046,38.0,144.0,1,0,0,2.592237499979092,'click_1',1.4099990949034691e-05,1033.5552503000072,0.01553910001530312,,1034.057184300007,1034.057184300007,1034.057184300007,0.0015297000063583255,0.017482600000221282,0.0015297000063583255,89.0,-58.0,1,0,0,4.868663100001868,'click_2',1.4699995517730713e-05,0.01544869999634102,,,12,001,control,22,m,13,1,ila ale,2024-03-07_13h12.15.014,CPO_EEG,2022.2.1,59.89171577608033,
stimoli/01.full/M03-Anger-Face Forward.mp4,angry,full,maschio,4,6,720,576,36,,,,,,,,,,,,,,,,,0,0,0,0,,,,,,,,,0,38,38,35,,,0.13842509998357855,1040.556551799993,0.14584919999470003,0.0006893000099807978,0.0006893000099807978,1046.5312237000035,1046.5312237000035,0.01633179999771528,-16.0,148.0,1,0,0,3.3291737000108697,'click_1',1.3699987903237343e-05,1049.8610844000068,0.015472800005227327,,1050.363161699992,1050.363161699992,1050.363161699992,0.0015140000032261014,0.017531099991174415,0.0015140000032261014,-19.0,144.0,1,0,0,1.4219689999881666,'click_2',1.4099990949034691e-05,0.015443899988895282,,,12,001,control,22,m,13,1,ila ale,2024-03-07_13h12.15.014,CPO_EEG,2022.2.1,59.89171577608033,
stimoli/01.full/M03-Fear-Face Forward.mp4,fear,full,maschio,4,6,720,576,32,,,,,,,,,,,,,,,,,0,0,0,0,,,,,,,,,0,39,39,31,,,0.14603800000622869,1053.4233084000007,0.1533738000143785,0.0007366999925579876,0.0007366999925579876,1059.4066362000012,1059.4066362000012,0.01653150000493042,43.0,-207.0,1,0,0,1.2042987999739125,'click_1',1.4299992471933365e-05,1060.6114424999978,0.015492800011998042,,1061.1131377999845,1061.1131377999845,1061.1131377999845,0.001281900011235848,0.01723550001042895,0.001281900011235848,-90.0,-121.0,1,0,0,1.6562762999965344,'click_2',1.4099990949034691e-05,0.01563839998561889,,,12,001,control,22,m,13,1,ila ale,2024-03-07_13h12.15.014,CPO_EEG,2022.2.1,59.89171577608033,
stimoli/01.full/F01-Fear-Face Forward.mp4,fear,full,femmina,1,6,720,576,29,,,,,,,,,,,,,,,,,0,0,0,0,,,,,,,,,0,40,40,28,,,0.14518620001035742,1064.4066743000003,0.1524317000003066,0.0007214999932330102,0.0007214999932330102,1070.3918477999978,1070.3918477999978,0.01648579997709021,-101.0,-158.0,1,0,0,1.706153200007975,'click_1',1.4599994756281376e-05,1072.0985080999963,0.015411100001074374,,1072.6006096999918,1072.6006096999918,1072.6006096999918,0.0014918999804649502,0.017523599992273375,0.0014918999804649502,13.0,-63.0,1,0,0,4.316299800004344,'click_2',1.3999990187585354e-05,0.01544570000260137,,,12,001,control,22,m,13,1,ila ale,2024-03-07_13h12.15.014,CPO_EEG,2022.2.1,59.89171577608033,
stimoli/01.full/M03-Sadness-Face Forward.mp4,sad,full,maschio,4,6,720,576,48,,,,,,,,,,,,,,,,,0,0,0,0,,,,,,,,,0,41,41,47,,,0.14352499999222346,1078.5526404999837,0.1509037000068929,0.0006944000197108835,0.0006944000197108835,1084.5389620999922,1084.5389620999922,0.016480799997225404,-42.0,-195.0,1,0,0,4.751576999988174,'click_1',1.4500023098662496e-05,1089.290998099983,0.015389000007417053,,1089.7929055999848,1089.7929055999848,1089.7929055999848,0.0014584000164177269,0.017299900006037205,0.0014584000164177269,80.0,-50.0,1,0,0,2.191586200002348,'click_2',2.9700022423639894e-05,0.015552800003206357,,,12,001,control,22,m,13,1,ila ale,2024-03-07_13h12.15.014,CPO_EEG,2022.2.1,59.89171577608033,
stimoli/02.subtle/JF1_Surprise.mp4,surprised,subtle,femmina,5,10,1646,926,21,,,,,,,,,,,,,,,,,0,0,0,0,,,,,,,,,0,42,42,20,,,0.1398967000131961,1093.6166232999822,0.14719099999638274,0.000700599979609251,0.000700599979609251,1104.3897863999882,1104.3897863999882,0.016575799993006513,84.0,-122.0,1,0,0,1.9575321999727748,'click_1',1.4300021575763822e-05,1106.3476930999896,0.015415900008520111,,1106.8497488999856,1106.8497488999856,1106.8497488999856,0.0016509999986737967,0.017514900013338774,0.0016509999986737967,80.0,53.0,1,0,0,3.9320597000187263,'click_2',1.4400022337213159e-05,0.015395100024761632,,,12,001,control,22,m,13,1,ila ale,2024-03-07_13h12.15.014,CPO_EEG,2022.2.1,59.89171577608033,
stimoli/01.full/F01-Neutral-Face Forward.mp4,neutral,full,femmina,1,6,720,576,53,,,,,,,,,,,,,,,,,0,0,0,0,,,,,,,,,0,43,43,52,,,0.14574490001541562,1112.4199742999917,0.15315920001012273,0.0007313999813050032,0.0007313999813050032,1118.4035063000047,1118.4035063000047,0.016511699999682605,-15.0,94.0,1,0,0,2.8936743000231218,'click_1',1.4499993994832039e-05,1121.2977045000007,0.015497299988055602,,1121.799815300008,1121.799815300008,1121.799815300008,0.0015347999869845808,0.017591599986189976,0.0015347999869845808,-17.0,97.0,1,0,0,1.1708309999958146,'click_2',1.4199991710484028e-05,0.015431699983309954,,,12,001,control,22,m,13,1,ila ale,2024-03-07_13h12.15.014,CPO_EEG,2022.2.1,59.89171577608033,
stimoli/01.full/F01-Sadness-Face Forward.mp4,sad,full,femmina,1,6,720,576,45,,,,,,,,,,,,,,,,,0,0,0,0,,,,,,,,,0,44,44,44,,,0.13765540000167675,1124.6003419999906,0.14499489997979254,0.0006732000038027763,0.0006732000038027763,1130.575997100008,1130.575997100008,0.016449799994006753,-24.0,-152.0,1,0,0,5.487749399995664,'click_1',1.3900018529966474e-05,1136.0644179999945,0.015597700024954975,,1136.5661863999849,1136.5661863999849,1136.5661863999849,0.0014925000141374767,0.017400600016117096,0.0014925000141374767,-54.0,-36.0,1,0,0,4.3670208000112325,'click_2',1.4699995517730713e-05,0.015566699992632493,,,12,001,control,22,m,13,1,ila ale,2024-03-07_13h12.15.014,CPO_EEG,2022.2.1,59.89171577608033,
stimoli/01.full/M02-Surprise-Face Forward.mp4,surprised,full,maschio,3,6,720,576,51,,,,,,,,,,,,,,,,,0,0,0,0,,,,,,,,,0,45,45,50,,,0.14238080001086928,1142.5678638999816,0.1496837000013329,0.0007454999722540379,0.0007454999722540379,1148.5390274999954,1148.5390274999954,0.016452199983177707,22.0,-96.0,1,0,0,4.952389500016579,'click_1',1.479999627918005e-05,1153.4919997999968,0.015461600007256493,,1153.9939262999978,1153.9939262999978,1153.9939262999978,0.0013986999983899295,0.01736460000392981,0.0013986999983899295,102.0,18.0,1,0,0,2.6433261999918614,'click_2',1.37000170070678e-05,0.015652900008717552,,,12,001,control,22,m,13,1,ila ale,2024-03-07_13h12.15.014,CPO_EEG,2022.2.1,59.89171577608033,
stimoli/02.subtle/JM1_Anger.mp4,angry,subtle,maschio,7,10,1646,926,7,,,,,,,,,,,,,,,,,0,0,0,0,,,,,,,,,0,46,46,6,,,0.13798400000086986,1158.2673963999841,0.14528980001341552,0.0007231000054161996,0.0007231000054161996,1168.6414786999812,1168.6414786999812,0.016514300019480288,-37.0,147.0,1,0,0,2.35819490000722,'click_1',1.3500015484169126e-05,1171.0003297000076,0.015620300022419542,,1171.5021339000086,1171.5021339000086,1171.5021339000086,0.0016642000118736178,0.0174682000069879,0.0016642000118736178,32.0,144.0,1,0,0,2.1246666999941226,'click_2',1.4200020814314485e-05,0.015623700019204989,,,12,001,control,22,m,13,1,ila ale,2024-03-07_13h12.15.014,CPO_EEG,2022.2.1,59.89171577608033,
stimoli/01.full/F01-Disgust-Face Forward.mp4,disgusted,full,femmina,1,6,720,576,37,,,,,,,,,,,,,,,,,0,0,0,0,,,,,,,,,0,47,47,36,,,0.14472720000776462,1175.2638113999856,0.15199980000033975,0.0007205999863799661,0.0007205999863799661,1181.2485181000084,1181.2485181000084,0.0164191999938339,-166.0,112.0,1,0,0,1.6056843000114895,'click_1',1.889999839477241e-05,1182.8548021999886,0.015415500005474314,,1183.3566384000005,1183.3566384000005,1183.3566384000005,0.00127859998610802,0.017259899992495775,0.00127859998610802,-100.0,22.0,1,0,0,3.982054899999639,'click_2',1.4299992471933365e-05,0.015604999993229285,,,12,001,control,22,m,13,1,ila ale,2024-03-07_13h12.15.014,CPO_EEG,2022.2.1,59.89171577608033,
stimoli/02.subtle/JF1_Happiness.mp4,happy,subtle,femmina,5,10,1646,926,13,,,,,,,,,,,,,,,,,0,0,0,0,,,,,,,,,0,48,48,12,,,0.14811760000884533,1188.978816399991,0.15528740000445396,0.0006750999891664833,0.0006750999891664833,1199.7616623000067,1199.7616623000067,0.016359600005671382,125.0,152.0,1,0,0,2.7436335000093095,'click_1',1.4199991710484028e-05,1202.505907499988,0.015454500011401251,,1203.0077118999907,1203.0077118999907,1203.0077118999907,0.0012091000098735094,0.01727430001483299,0.0012091000098735094,203.0,46.0,1,0,0,1.4055509000027087,'click_2',1.3899989426136017e-05,0.015521099994657561,,,12,001,control,22,m,13,1,ila ale,2024-03-07_13h12.15.014,CPO_EEG,2022.2.1,59.89171577608033,
stimoli/01.full/M02-Sadness-Face Forward.mp4,sad,full,maschio,3,6,720,576,47,,,,,,,,,,,,,,,,,0,0,0,0,,,,,,,,,0,49,49,46,,,0.13733820000197738,1206.0426586999965,0.14467189999413677,0.0007493000011891127,0.0007493000011891127,1211.667224899982,1211.667224899982,0.016507400025147945,-118.0,-73.0,1,0,0,4.701170000014827,'click_1',1.4099990949034691e-05,1216.3689616000047,0.015585599991027266,,1216.871073199989,1216.871073199989,1216.871073199989,0.001745899993693456,0.017686400009552017,0.001745899993693456,-133.0,-29.0,1,0,0,2.7936174000205938,'click_2',1.4400022337213159e-05,0.015490500023588538,,,12,001,control,22,m,13,1,ila ale,2024-03-07_13h12.15.014,CPO_EEG,2022.2.1,59.89171577608033,
stimoli/02.subtle/JF2_Surprise.mp4,surprised,subtle,femmina,6,10,1646,926,22,,,,,,,,,,,,,,,,,0,0,0,0,,,,,,,,,0,50,50,21,,,0.13968030002433807,1221.2966888000083,0.14705460000550374,0.0006996000010985881,0.0006996000010985881,1231.6698160000087,1231.6698160000087,0.01633889999357052,103.0,-16.0,1,0,0,5.051908800000092,'click_1',1.4999997802078724e-05,1236.722451299982,0.015591799980029464,,1237.2244051999878,1237.2244051999878,1237.2244051999878,0.0015355999930761755,0.017583099979674444,0.0015355999930761755,-1.0,2.0,1,0,0,1.0373012000054587,'click_2',1.4099990949034691e-05,0.015665299986721948,,,12,001,control,22,m,13,1,ila ale,2024-03-07_13h12.15.014,CPO_EEG,2022.2.1,59.89171577608033,
stimoli/02.subtle/JF1_Disgust.mp4,disgusted,subtle,femmina,5,10,1646,926,9,,,,,,,,,,,,,,,,,0,0,0,0,,,,,,,,,0,51,51,8,,,0.14911130000837147,1239.9028692999855,0.1564148000034038,0.0007013000140432268,0.0007013000140432268,1250.6868797999923,1250.6868797999923,0.01754390000132844,-78.0,124.0,1,0,0,1.856416700000409,'click_1',1.4299992471933365e-05,1252.5430835000006,0.01581899999291636,,1253.0450329000014,1253.0450329000014,1253.0450329000014,0.0017204000032506883,0.01778950000880286,0.0017204000032506883,-136.0,25.0,1,0,0,1.890694200003054,'click_2',1.4499993994832039e-05,0.015400499978568405,,,12,001,control,22,m,13,1,ila ale,2024-03-07_13h12.15.014,CPO_EEG,2022.2.1,59.89171577608033,
stimoli/02.subtle/JM2_Disgust.mp4,disgusted,subtle,maschio,8,10,1646,926,12,,,,,,,,,,,,,,,,,0,0,0,0,,,,,,,,,0,52,52,11,,,0.14733899998827837,1256.575078199996,0.15454560000216588,0.0006655000033788383,0.0006655000033788383,1267.1577871000045,1267.1577871000045,0.016478799981996417,118.0,75.0,1,0,0,3.947995099995751,'click_1',1.3400014722719789e-05,1271.106137900002,0.015367999993031844,,1271.6079472999845,1271.6079472999845,1271.6079472999845,0.0012055000115651637,0.017150300001958385,0.0012055000115651637,-35.0,57.0,1,0,0,2.7104638000018895,'click_2',1.479999627918005e-05,0.015583700005663559,,,12,001,control,22,m,13,1,ila ale,2024-03-07_13h12.15.014,CPO_EEG,2022.2.1,59.89171577608033,
stimoli/02.subtle/JM1_Sadness.mp4,sad,subtle,maschio,7,10,1646,926,19,,,,,,,,,,,,,,,,,0,0,0,0,,,,,,,,,0,53,53,18,,,0.1452432000078261,1275.9558284000086,0.15250220001325943,0.0007219999970402569,0.0007219999970402569,1286.3405968000006,1286.3405968000006,0.016354199993656948,-12.0,-100.0,1,0,0,2.67643500000122,'click_1',1.4699995517730713e-05,1289.0177168999799,0.015483299997868016,,1289.5195971000066,1289.5195971000066,1289.5195971000066,0.001190500013763085,0.01737929999944754,0.001190500013763085,83.0,-57.0,1,0,0,2.6939137000008486,'click_2',1.4100020052865148e-05,0.01550960002350621,,,12,001,control,22,m,13,1,ila ale,2024-03-07_13h12.15.014,CPO_EEG,2022.2.1,59.89171577608033,
stimoli/01.full/M03-Neutral-Face Forward.mp4,neutral,full,maschio,4,6,720,576,56,,,,,,,,,,,,,,,,,0,0,0,0,,,,,,,,,0,54,54,55,,,0.13733610001509078,1293.8428718000068,0.1447409999964293,0.00066970000625588,0.00066970000625588,1299.8185112999927,1299.8185112999927,0.01648000002023764,0.0,3.0,1,0,0,2.174364800011972,'click_1',1.4499993994832039e-05,1301.9933695000072,0.015505199990002438,,1302.4953687000088,1302.4953687000088,1302.4953687000088,0.0014676999999210238,0.017532199999550357,0.0014676999999210238,0.0,0.0,1,0,0,0.53488400002243,'click_2',1.3899989426136017e-05,0.01558199999271892,,,12,001,control,22,m,13,1,ila ale,2024-03-07_13h12.15.014,CPO_EEG,2022.2.1,59.89171577608033,
stimoli/01.full/F03-Surprise-Face Forward.mp4,surprised,full,femmina,2,6,720,576,50,,,,,,,,,,,,,,,,,0,0,0,0,,,,,,,,,0,55,55,49,,,0.1377968000015244,1304.6601618999848,0.14515220001339912,0.0007283000159077346,0.0007283000159077346,1310.6344984000025,1310.6344984000025,0.016518900025403127,42.0,-192.0,1,0,0,1.7731060000078287,'click_1',1.4399993233382702e-05,1312.4079925999977,0.01536580000538379,,1312.9101817999908,1312.9101817999908,1312.9101817999908,0.00170980000984855,0.017590500006917864,0.00170980000984855,91.0,56.0,1,0,0,4.267019699997036,'click_2',1.4199991710484028e-05,0.015448499994818121,,,12,001,control,22,m,13,1,ila ale,2024-03-07_13h12.15.014,CPO_EEG,2022.2.1,59.89171577608033,
,,,,,,,,,,,,,,,,,,,,,,,,,0,0,0,0,,,,,,,,,,,,,,,,,,,,,,,,,,,,,,,,,,,,,,,,,,,,,,,,,,,12,001,control,22,m,13,1,ila ale,2024-03-07_13h12.15.014,CPO_EEG,2022.2.1,59.89171577608033,
,,,,,,,,,,,,,,,,,,,,,,,,,1,0,1,0,,,,,0,0,0,0,,,,,,,,,,,,,,,,,,,,,,,,,,,,,,,,,,,,,,,,,,,12,001,control,22,m,13,1,ila ale,2024-03-07_13h12.15.014,CPO_EEG,2022.2.1,59.89171577608033,
stimoli/02.subtle/JM2_Disgust.mp4,disgusted,subtle,maschio,8,10,1646,926,12,,,,,,,,,,,,,,,,,1,0,1,0,,,,,,,,,0,0,0,11,,,0.13810409998404793,1341.1590075999848,0.1452415999956429,0.000742000003810972,0.000742000003810972,1351.7392034000077,1351.7392034000077,0.016350100020645186,-79.0,113.0,1,0,0,3.329758700012462,'click_1',1.4400022337213159e-05,1355.0698120000015,0.01518810002016835,,1355.5716321000073,1355.5716321000073,1355.5716321000073,0.0010483000078238547,0.017031299998052418,0.0010483000078238547,-103.0,19.0,1,0,0,1.739823100011563,'click_2',1.4600023860111833e-05,0.015169400023296475,,,12,001,control,22,m,13,1,ila ale,2024-03-07_13h12.15.014,CPO_EEG,2022.2.1,59.89171577608033,
stimoli/02.subtle/JM1_Anger.mp4,angry,subtle,maschio,7,10,1646,926,7,,,,,,,,,,,,,,,,,1,0,1,0,,,,,,,,,0,1,1,6,,,0.13329920000978746,1358.9372869000072,0.14060250000329688,0.0007569000008516014,0.0007569000008516014,1369.3161263999937,1369.3161263999937,0.016403299989178777,-37.0,199.0,1,0,0,1.4723997999972198,'click_1',1.3999990187585354e-05,1370.7890983999823,0.015396000002510846,,1371.2911072999996,1371.2911072999996,1371.2911072999996,0.001784899999620393,0.017398199997842312,0.001784899999620393,-82.0,-52.0,1,0,0,2.692938799998956,'click_2',1.4199991710484028e-05,0.015402899996843189,,,12,001,control,22,m,13,1,ila ale,2024-03-07_13h12.15.014,CPO_EEG,2022.2.1,59.89171577608033,
stimoli/02.subtle/JM2_Anger.mp4,angry,subtle,maschio,8,10,1646,926,8,,,,,,,,,,,,,,,,,1,0,1,0,,,,,,,,,0,2,2,7,,,0.1325792999996338,1375.6091586999828,0.13985939999110997,0.0007048999832477421,0.0007048999832477421,1386.5562582999992,1386.5562582999992,0.01646379998419434,-21.0,133.0,1,0,0,4.332543299999088,'click_1',1.4699995517730713e-05,1390.8894128999964,0.015609800000675023,,1391.3911591999931,1391.3911591999931,1391.3911591999931,0.0015854999946895987,0.017375800001900643,0.0015854999946895987,-15.0,96.0,1,0,0,3.31258239998715,'click_2',1.3899989426136017e-05,0.01562669998384081,,,12,001,control,22,m,13,1,ila ale,2024-03-07_13h12.15.014,CPO_EEG,2022.2.1,59.89171577608033,
stimoli/01.full/M02-Sadness-Face Forward.mp4,sad,full,maschio,3,6,720,576,47,,,,,,,,,,,,,,,,,1,0,1,0,,,,,,,,,0,3,3,46,,,0.13117949999286793,1396.3273505999823,0.13855010000406764,0.0007091999868862331,0.0007091999868862331,1401.9406631999882,1401.9406631999882,0.016413999983342364,-79.0,-116.0,1,0,0,2.7771228000056,'click_1',1.5700003132224083e-05,1404.7185229999886,0.015571199997793883,,1405.2205048000033,1405.2205048000033,1405.2205048000033,0.0016101000073831528,0.017516399995656684,0.0016101000073831528,1.0,-2.0,1,0,0,1.6558168999908958,'click_2',1.3900018529966474e-05,0.015502399997785687,,,12,001,control,22,m,13,1,ila ale,2024-03-07_13h12.15.014,CPO_EEG,2022.2.1,59.89171577608033,
stimoli/02.subtle/JM1_Surprise.mp4,surprised,subtle,maschio,7,10,1646,926,23,,,,,,,,,,,,,,,,,1,0,1,0,,,,,,,,,0,4,4,22,,,0.13207610000972636,1408.500556599989,0.13932780001778156,0.0007152000034693629,0.0007152000034693629,1418.880303199985,1418.880303199985,0.016546300001209602,17.0,-93.0,1,0,0,1.9408985000045504,'click_1',1.4299992471933365e-05,1420.8218214999943,0.01569169998401776,,1421.323534700001,1421.323534700001,1421.323534700001,0.0013552999880630523,0.01741459997720085,0.0013552999880630523,11.0,-62.0,1,0,0,6.407306499982951,'click_2',1.37000170070678e-05,0.015501599991694093,,,12,001,control,22,m,13,1,ila ale,2024-03-07_13h12.15.014,CPO_EEG,2022.2.1,59.89171577608033,
stimoli/02.subtle/JM2_Sadness.mp4,sad,subtle,maschio,8,10,1646,926,20,,,,,,,,,,,,,,,,,1,0,1,0,,,,,,,,,0,5,5,19,,,0.1335354000038933,1429.356512600003,0.14094099999056198,0.0007239000115077943,0.0007239000115077943,1439.9351145999972,1439.9351145999972,0.016406600014306605,-164.0,-102.0,1,0,0,3.0279185000108555,'click_1',1.4399993233382702e-05,1442.9637726999936,0.015653399983420968,,1443.4654344999872,1443.4654344999872,1443.4654344999872,0.0014661999884992838,0.017342799983453006,0.0014661999884992838,-52.0,82.0,1,0,0,1.7236899999843445,'click_2',1.3999990187585354e-05,0.015634299983503297,,,12,001,control,22,m,13,1,ila ale,2024-03-07_13h12.15.014,CPO_EEG,2022.2.1,59.89171577608033,
stimoli/01.full/F03-Neutral-Face Forward.mp4,neutral,full,femmina,2,6,720,576,54,,,,,,,,,,,,,,,,,1,0,1,0,,,,,,,,,0,6,6,53,,,0.1315234999929089,1446.8129345999914,0.1388907999789808,0.0007144999981392175,0.0007144999981392175,1452.7927353999985,1452.7927353999985,0.016580999974394217,0.0,2.0,1,0,0,0.5513762999908067,'click_1',1.4499993994832039e-05,1453.3445781999908,0.01559669998823665,,1453.846347899991,1453.846347899991,1453.846347899991,0.001483400003053248,0.01736279999022372,0.001483400003053248,0.0,0.0,1,0,0,0.3677902999916114,'click_2',1.7300015315413475e-05,0.01557759998831898,,,12,001,control,22,m,13,1,ila ale,2024-03-07_13h12.15.014,CPO_EEG,2022.2.1,59.89171577608033,
stimoli/01.full/F01-Fear-Face Forward.mp4,fear,full,femmina,1,6,720,576,29,,,,,,,,,,,,,,,,,1,0,1,0,,,,,,,,,0,7,7,28,,,0.13128649999271147,1455.8377419000026,0.13865929999155924,0.0007221999985631555,0.0007221999985631555,1461.8181568,1461.8181568,0.01650950001203455,-77.0,-119.0,1,0,0,1.8902146000182256,'click_1',1.750001683831215e-05,1463.7088744000066,0.015518500003963709,,1464.2108025999914,1464.2108025999914,1464.2108025999914,0.001505899999756366,0.01743100001476705,0.001505899999756366,-103.0,-18.0,1,0,0,2.174937300005695,'click_2',1.400001929141581e-05,0.01558070001192391,,,12,001,control,22,m,13,1,ila ale,2024-03-07_13h12.15.014,CPO_EEG,2022.2.1,59.89171577608033,
stimoli/02.subtle/JM1_Fear.mp4,fear,subtle,maschio,7,10,1646,926,3,,,,,,,,,,,,,,,,,1,0,1,0,,,,,,,,,0,8,8,2,,,0.1320484000025317,1468.009924199985,0.13936010000179522,0.0007234999793581665,0.0007234999793581665,1478.388913600007,1478.388913600007,0.016520999983185902,-49.0,-88.0,1,0,0,3.0444934999977704,'click_1',1.4199991710484028e-05,1481.43396569998,0.01554500000202097,,1481.9359310999862,1481.9359310999862,1481.9359310999862,0.0016130000003613532,0.01751279999734834,0.0016130000003613532,-139.0,-27.0,1,0,0,5.287089499994181,'click_2',1.4599994756281376e-05,0.015554199984762818,,,12,001,control,22,m,13,1,ila ale,2024-03-07_13h12.15.014,CPO_EEG,2022.2.1,59.89171577608033,
stimoli/01.full/M02-Anger-Face Forward.mp4,angry,full,maschio,3,6,720,576,35,,,,,,,,,,,,,,,,,1,0,1,0,,,,,,,,,0,9,9,34,,,0.1321966999967117,1488.8474981999898,0.13958079999429174,0.0006795000226702541,0.0006795000226702541,1494.8269372000068,1494.8269372000068,0.016403500019805506,-75.0,122.0,1,0,0,5.620422199979657,'click_1',1.4200020814314485e-05,1500.448171600001,0.015771400008816272,,1500.950309399981,1500.950309399981,1500.950309399981,0.0019508000114001334,0.017884800006868318,0.0019508000114001334,-12.0,61.0,1,0,0,1.638947300001746,'click_2',1.4299992471933365e-05,0.015585099987220019,,,12,001,control,22,m,13,1,ila ale,2024-03-07_13h12.15.014,CPO_EEG,2022.2.1,59.89171577608033,
stimoli/01.full/F03-Joy-Face Forward.mp4,happy,full,femmina,2,6,720,576,42,,,,,,,,,,,,,,,,,1,0,1,0,,,,,,,,,0,10,10,41,,,0.1277461999852676,1504.209178899997,0.13502909999806434,0.0006904999900143594,0.0006904999900143594,1510.226505300001,1510.226505300001,0.01641029998427257,174.0,114.0,1,0,0,4.383818100002827,'click_1',1.4500023098662496e-05,1514.6108457999944,0.015439200011314824,,1515.1128502000065,1515.1128502000065,1515.1128502000065,0.001490800001192838,0.01749460000428371,0.001490800001192838,188.0,47.0,1,0,0,2.9280377000104636,'click_2',1.4299992471933365e-05,0.015582199994241819,,,12,001,control,22,m,13,1,ila ale,2024-03-07_13h12.15.014,CPO_EEG,2022.2.1,59.89171577608033,
stimoli/02.subtle/JF2_Surprise.mp4,surprised,subtle,femmina,6,10,1646,926,22,,,,,,,,,,,,,,,,,1,0,1,0,,,,,,,,,0,11,11,21,,,0.13504069999908097,1519.6680736999842,0.14240429998608306,0.0007164000126067549,0.0007164000126067549,1530.0449085999862,1530.0449085999862,0.016536500013899058,27.0,-132.0,1,0,0,2.7106689999927767,'click_1',1.4699995517730713e-05,1532.7560393000022,0.015434900007676333,,1533.2578442999802,1533.2578442999802,1533.2578442999802,0.0011916000221390277,0.017237899999599904,0.0011916000221390277,-91.0,16.0,1,0,0,1.2211335000174586,'click_2',1.4099990949034691e-05,0.015542499982984737,,,12,001,control,22,m,13,1,ila ale,2024-03-07_13h12.15.014,CPO_EEG,2022.2.1,59.89171577608033,
stimoli/02.subtle/JF1_Happiness.mp4,happy,subtle,femmina,5,10,1646,926,13,,,,,,,,,,,,,,,,,1,0,1,0,,,,,,,,,0,12,12,12,,,0.1348052999819629,1536.1057565000083,0.14206300000660121,0.0006928000075276941,0.0006928000075276941,1546.8841161000018,1546.8841161000018,0.01645759999519214,76.0,129.0,1,0,0,3.982162900007097,'click_1',1.5199999324977398e-05,1550.8668118999922,0.015497000014875084,,1551.3687442000082,1551.3687442000082,1551.3687442000082,0.0013506000104825944,0.017455799999879673,0.0013506000104825944,195.0,29.0,1,0,0,1.2380390999896917,'click_2',1.4800025383010507e-05,0.015627400018274784,,,12,001,control,22,m,13,1,ila ale,2024-03-07_13h12.15.014,CPO_EEG,2022.2.1,59.89171577608033,
stimoli/02.subtle/JF1_Surprise.mp4,surprised,subtle,femmina,5,10,1646,926,21,,,,,,,,,,,,,,,,,1,0,1,0,,,,,,,,,0,13,13,20,,,0.13404679999803193,1554.2327240000013,0.14124970001284964,0.0007130999874789268,0.0007130999874789268,1565.0117436999863,1565.0117436999863,0.016375000006519258,105.0,-159.0,1,0,0,1.5053675999806728,'click_1',1.4800025383010507e-05,1566.517912899988,0.015705900004832074,,1567.0197348000074,1567.0197348000074,1567.0197348000074,0.001636000000871718,0.017551500000990927,0.001636000000871718,124.0,84.0,1,0,0,2.577237499994226,'click_2',1.37000170070678e-05,0.015598600002704188,,,12,001,control,22,m,13,1,ila ale,2024-03-07_13h12.15.014,CPO_EEG,2022.2.1,59.89171577608033,
stimoli/01.full/M03-Surprise-Face Forward.mp4,surprised,full,maschio,4,6,720,576,52,,,,,,,,,,,,,,,,,1,0,1,0,,,,,,,,,0,14,14,51,,,0.13094050000654534,1571.2201254999964,0.1382813999953214,0.0006929000082891434,0.0006929000082891434,1577.2007296000083,1577.2007296000083,0.016496700001880527,51.0,-193.0,1,0,0,1.5054407000134233,'click_1',1.8099992303177714e-05,1578.706638899981,0.015437299996847287,,1579.2088520999823,1579.2088520999823,1579.2088520999823,0.0016150999872479588,0.017700399999739602,0.0016150999872479588,101.0,-15.0,1,0,0,2.1765910999965854,'click_2',1.4099990949034691e-05,0.01434630001313053,,,12,001,control,22,m,13,1,ila ale,2024-03-07_13h12.15.014,CPO_EEG,2022.2.1,59.89171577608033,
stimoli/02.subtle/JF2_Anger.mp4,angry,subtle,femmina,6,9,1646,926,6,,,,,,,,,,,,,,,,,1,0,1,0,,,,,,,,,0,15,15,5,,,0.1336081000044942,1583.0111901999917,0.14108760000090115,0.0007003000064287335,0.0007003000064287335,1592.468333900004,1592.468333900004,0.016587599995546043,-198.0,38.0,1,0,0,2.459776299976511,'click_1',1.3800017768517137e-05,1594.9276780000073,0.014640900015365332,1595.4296316999826,1595.4296316999826,1595.4296316999826,1595.4296316999826,0.00097490000189282,0.016612700012046844,0.00097490000189282,-51.0,87.0,1,0,0,3.2124244000006,'click_2',1.3900018529966474e-05,0.015616899996530265,,,12,001,control,22,m,13,1,ila ale,2024-03-07_13h12.15.014,CPO_EEG,2022.2.1,59.89171577608033,
stimoli/02.subtle/JF1_Neutral.mp4,neutral,subtle,femmina,5,10,1646,926,25,,,,,,,,,,,,,,,,,1,0,1,0,,,,,,,,,0,16,16,24,,,0.13427730000694282,1600.2688175000076,0.14159220000146888,0.0007002000056672841,0.0007002000056672841,1611.0479590999894,1611.0479590999894,0.016449699993245304,0.0,0.0,1,0,0,0.9361626000027172,'click_1',1.7799990018829703e-05,1611.984579699987,0.015321099985158071,,1612.4864770999993,1612.4864770999993,1612.4864770999993,0.0011895000061485916,0.017235999985132366,0.0011895000061485916,0.0,0.0,1,0,0,0.3176219000015408,'click_2',1.3900018529966474e-05,0.01562200000626035,,,12,001,control,22,m,13,1,ila ale,2024-03-07_13h12.15.014,CPO_EEG,2022.2.1,59.89171577608033,
stimoli/01.full/F01-Surprise-Face Forward.mp4,surprised,full,femmina,1,6,720,576,49,,,,,,,,,,,,,,,,,1,0,1,0,,,,,,,,,0,17,17,48,,,0.13136870000744238,1614.4275109999871,0.1386806000082288,0.0006286000134423375,0.0006286000134423375,1620.4074298999913,1620.4074298999913,0.01641599999857135,38.0,-194.0,1,0,0,1.940689300012309,'click_1',1.3600016245618463e-05,1622.34858239998,0.0154575000051409,,1622.8506417000026,1622.8506417000026,1622.8506417000026,0.0015966000210028142,0.017544800008181483,0.0015966000210028142,24.0,-145.0,1,0,0,5.722858399996767,'click_2',1.4099990949034691e-05,0.01563399998121895,,,12,001,control,22,m,13,1,ila ale,2024-03-07_13h12.15.014,CPO_EEG,2022.2.1,59.89171577608033,
stimoli/01.full/M02-Surprise-Face Forward.mp4,surprised,full,maschio,3,6,720,576,51,,,,,,,,,,,,,,,,,1,0,1,0,,,,,,,,,0,18,18,50,,,0.1320255000027828,1630.1976684999827,0.139342399983434,0.0007265000022016466,0.0007265000022016466,1636.1783633999876,1636.1783633999876,0.016384099988499656,32.0,-145.0,1,0,0,1.7896394999988843,'click_1',2.6399997295811772e-05,1637.968674200005,0.015496699983486906,,1638.4704588000022,1638.4704588000022,1638.4704588000022,0.0013055999879725277,0.017267299990635365,0.0013055999879725277,64.0,-78.0,1,0,0,2.610218000016175,'click_2',1.4099990949034691e-05,0.01544409999041818,,,12,001,control,22,m,13,1,ila ale,2024-03-07_13h12.15.014,CPO_EEG,2022.2.1,59.89171577608033,
stimoli/02.subtle/JM2_Surprise.mp4,surprised,subtle,maschio,8,10,1646,926,24,,,,,,,,,,,,,,,,,1,0,1,0,,,,,,,,,0,19,19,23,,,0.13352989999111742,1642.7061762000085,0.14067090000025928,0.0007255999953486025,0.0007255999953486025,1653.6377176999813,1653.6377176999813,0.016481700004078448,22.0,-102.0,1,0,0,1.840220700018108,'click_1',1.470002462156117e-05,1655.4783975000028,0.01541160000488162,,1655.9802408999822,1655.9802408999822,1655.9802408999822,0.00128900000709109,0.01728290002210997,0.00128900000709109,-55.0,-37.0,1,0,0,8.499656400003005,'click_2',1.400001929141581e-05,0.01592730000265874,,,12,001,control,22,m,13,1,ila ale,2024-03-07_13h12.15.014,CPO_EEG,2022.2.1,59.89171577608033,
stimoli/01.full/F01-Anger-Face Forward.mp4,angry,full,femmina,1,6,720,576,33,,,,,,,,,,,,,,,,,1,0,1,0,,,,,,,,,0,20,20,32,,,0.1336240000091493,1666.1058463999943,0.1411466000135988,0.0007329999934881926,0.0007329999934881926,1672.0843870999815,1672.0843870999815,0.016468299989355728,-20.0,153.0,1,0,0,3.312670100014657,'click_1',1.4600023860111833e-05,1675.3977316999808,0.01566500001354143,,1675.89976629999,1675.89976629999,1675.89976629999,0.0017492000188212842,0.01774220002698712,0.0017492000188212842,-74.0,-53.0,1,0,0,3.84820349997608,'click_2',1.4299992471933365e-05,0.015657000010833144,,,12,001,control,22,m,13,1,ila ale,2024-03-07_13h12.15.014,CPO_EEG,2022.2.1,59.89171577608033,
stimoli/01.full/F03-Fear-Face Forward.mp4,fear,full,femmina,2,6,720,576,30,,,,,,,,,,,,,,,,,1,0,1,0,,,,,,,,,0,21,21,29,,,0.13211420000880025,1681.3723030999827,0.1394846999901347,0.0007216999947559088,0.0007216999947559088,1687.3526095999987,1687.3526095999987,0.016515799972694367,-95.0,-158.0,1,0,0,2.224809199979063,'click_1',1.4599994756281376e-05,1689.5779119000072,0.015470100013772026,,1690.079780400003,1690.079780400003,1690.079780400003,0.0013639999961014837,0.017392200010363013,0.0013639999961014837,-82.0,-118.0,1,0,0,2.509848300018348,'click_2',1.3699987903237343e-05,0.015387099992949516,,,12,001,control,22,m,13,1,ila ale,2024-03-07_13h12.15.014,CPO_EEG,2022.2.1,59.89171577608033,
stimoli/02.subtle/JF1_Sadness.mp4,sad,subtle,femmina,5,10,1646,926,17,,,,,,,,,,,,,,,,,1,0,1,0,,,,,,,,,0,22,22,16,,,0.13349869998637587,1694.2152623999864,0.1408400999789592,0.0007365999917965382,0.0007365999917965382,1704.9963615000015,1704.9963615000015,0.01629599998705089,-119.0,-169.0,1,0,0,1.756422999984352,'click_1',1.3900018529966474e-05,1706.7533788,0.015336500015109777,,1707.255271800008,1707.255271800008,1707.255271800008,0.001333599997451529,0.017259699990972877,0.001333599997451529,-17.0,-63.0,1,0,0,1.5225017000047956,'click_2',1.4599994756281376e-05,0.015617899975040928,,,12,001,control,22,m,13,1,ila ale,2024-03-07_13h12.15.014,CPO_EEG,2022.2.1,59.89171577608033,
stimoli/01.full/M03-Disgust-Face Forward.mp4,disgusted,full,maschio,4,6,720,576,40,,,,,,,,,,,,,,,,,1,0,1,0,,,,,,,,,0,23,23,39,,,0.1303792999824509,1710.4002886999806,0.13763189999735914,0.0007150000019464642,0.0007150000019464642,1716.3832993999822,1716.3832993999822,0.01636420001159422,-107.0,78.0,1,0,0,2.1744393999979366,'click_1',1.4999997802078724e-05,1718.5584436999925,0.015449600003194064,,1719.0602233999816,1719.0602233999816,1719.0602233999816,0.0013210000179242343,0.01721800002269447,0.0013210000179242343,-115.0,80.0,1,0,0,1.68953689999762,'click_2',1.5199999324977398e-05,0.015436400019098073,,,12,001,control,22,m,13,1,ila ale,2024-03-07_13h12.15.014,CPO_EEG,2022.2.1,59.89171577608033,
stimoli/01.full/M03-Sadness-Face Forward.mp4,sad,full,maschio,4,6,720,576,48,,,,,,,,,,,,,,,,,1,0,1,0,,,,,,,,,0,24,24,47,,,0.1307243000192102,1722.3728780999954,0.13807190000079572,0.0006889000069350004,0.0006889000069350004,1728.354070100002,1728.354070100002,0.01649500001803972,-32.0,-201.0,1,0,0,4.8016102999972645,'click_1',1.470002462156117e-05,1733.1560685999866,0.015389200008939952,,1733.6578534999862,1733.6578534999862,1733.6578534999862,0.0012805000005755574,0.017224300012458116,0.0012805000005755574,-88.0,-55.0,1,0,0,2.442764699982945,'click_2',1.4599994756281376e-05,0.0154663999855984,,,12,001,control,22,m,13,1,ila ale,2024-03-07_13h12.15.014,CPO_EEG,2022.2.1,59.89171577608033,
stimoli/02.subtle/JF2_Fear.mp4,fear,subtle,femmina,6,10,1646,926,2,,,,,,,,,,,,,,,,,1,0,1,0,,,,,,,,,0,25,25,1,,,0.13461129998904653,1737.7273718999932,0.14189729999634437,0.0007378999725915492,0.0007378999725915492,1748.1060730000027,1748.1060730000027,0.016498799988767132,0.0,0.0,1,0,0,0.5011658000003081,'click_1',1.4899997040629387e-05,1748.6078281000082,0.015593399992212653,,1749.10978899998,1749.10978899998,1749.10978899998,0.0015983000048436224,0.017570700001670048,0.0015983000048436224,0.0,0.0,1,0,0,0.33425610000267625,'click_2',1.379998866468668e-05,0.015517799998633564,,,12,001,control,22,m,13,1,ila ale,2024-03-07_13h12.15.014,CPO_EEG,2022.2.1,59.89171577608033,
stimoli/01.full/M02-Neutral-Face Forward.mp4,neutral,full,maschio,3,6,720,576,55,,,,,,,,,,,,,,,,,1,0,1,0,,,,,,,,,0,26,26,54,,,0.1321557000046596,1751.0683849999914,0.13949739999952726,0.0006704999832436442,0.0006704999832436442,1757.0484245999833,1757.0484245999833,0.016341699985787272,124.0,-74.0,1,0,0,4.550232799985679,'click_1',1.3899989426136017e-05,1761.599393899989,0.015588600013870746,,1762.1010544000019,1762.1010544000019,1762.1010544000019,0.0013730000064242631,0.01723090000450611,0.0013730000064242631,-2.0,-3.0,1,0,0,1.120752699993318,'click_2',1.4699995517730713e-05,0.015620099991792813,,,12,001,control,22,m,13,1,ila ale,2024-03-07_13h12.15.014,CPO_EEG,2022.2.1,59.89171577608033,
stimoli/02.subtle/JF2_Sadness.mp4,sad,subtle,femmina,6,8,1646,926,18,,,,,,,,,,,,,,,,,1,0,1,0,,,,,,,,,0,27,27,17,,,0.13398119999328628,1764.8480172999843,0.1412959999870509,0.0006759000243619084,0.0006759000243619084,1773.1852270999807,1773.1852270999807,0.016512100002728403,-85.0,-57.0,1,0,0,3.5794805999903474,'click_1',1.3899989426136017e-05,1776.7651190999895,0.01549319998594001,,1777.267069499998,1777.267069499998,1777.267069499998,0.001440399995772168,0.017495899985078722,0.001440399995772168,-67.0,-16.0,1,0,0,1.5891344999836292,'click_2',1.4399993233382702e-05,0.015366799983894452,,,12,001,control,22,m,13,1,ila ale,2024-03-07_13h12.15.014,CPO_EEG,2022.2.1,59.89171577608033,
stimoli/02.subtle/JM1_Happiness.mp4,happy,subtle,maschio,7,10,1646,926,15,,,,,,,,,,,,,,,,,1,0,1,0,,,,,,,,,0,28,28,14,,,0.1322820000059437,1780.4805656999815,0.13955540000461042,0.0007271000067703426,0.0007271000067703426,1790.8598342000041,1790.8598342000041,0.016431399999419227,38.0,148.0,1,0,0,2.090832199988654,'click_1',1.4600023860111833e-05,1792.9514478000056,0.015705300000263378,,1793.4533231999958,1793.4533231999958,1793.4533231999958,0.0016964000242296606,0.017617400008020923,0.0016964000242296606,148.0,110.0,1,0,0,1.3051901999861002,'click_2',1.4199991710484028e-05,0.0158485000138171,,,12,001,control,22,m,13,1,ila ale,2024-03-07_13h12.15.014,CPO_EEG,2022.2.1,59.89171577608033,
stimoli/02.subtle/JF2_Happiness.mp4,happy,subtle,femmina,6,9,1646,926,14,,,,,,,,,,,,,,,,,1,0,1,0,,,,,,,,,0,29,29,13,,,0.13528620000579394,1796.385964199988,0.14254510001046583,0.0007510000141337514,0.0007510000141337514,1805.8429038999893,1805.8429038999893,0.016460000013466924,137.0,187.0,1,0,0,1.4556814999959897,'click_1',1.4400022337213159e-05,1807.2992202999885,0.015557200007606298,,1807.8011098999996,1807.8011098999996,1807.8011098999996,0.0015447000041604042,0.01743259999784641,0.0015447000041604042,190.0,38.0,1,0,0,0.9868063000030816,'click_2',1.379998866468668e-05,0.015468800003873184,,,12,001,control,22,m,13,1,ila ale,2024-03-07_13h12.15.014,CPO_EEG,2022.2.1,59.89171577608033,
stimoli/01.full/F03-Surprise-Face Forward.mp4,surprised,full,femmina,2,6,720,576,50,,,,,,,,,,,,,,,,,1,0,1,0,,,,,,,,,0,30,30,49,,,0.1319659999862779,1810.4122177999816,0.13935049998690374,0.0007066999969538301,0.0007066999969538301,1816.3926838999905,1816.3926838999905,0.01639249999425374,41.0,-197.0,1,0,0,2.710139300004812,'click_1',1.4299992471933365e-05,1819.103396099992,0.015448899997863919,,1819.605379799992,1819.605379799992,1819.605379799992,0.0015629999979864806,0.01748579999548383,0.0015629999979864806,36.0,-131.0,1,0,0,3.3296672999858856,'click_2',1.4399993233382702e-05,0.015534999984083697,,,12,001,control,22,m,13,1,ila ale,2024-03-07_13h12.15.014,CPO_EEG,2022.2.1,59.89171577608033,
stimoli/01.full/M02-Disgust-Face Forward.mp4,disgusted,full,maschio,3,6,720,576,39,,,,,,,,,,,,,,,,,1,0,1,0,,,,,,,,,0,31,31,38,,,0.13139299998874776,1824.5585888999922,0.1386853999865707,0.0006975999858696014,0.0006975999858696014,1830.5392267999996,1830.5392267999996,0.016462800005683675,-119.0,81.0,1,0,0,2.6429948000004515,'click_1',1.4099990949034691e-05,1833.1827349999803,0.015516399987973273,,1833.6846564000007,1833.6846564000007,1833.6846564000007,0.001439499988919124,0.017451099993195385,0.001439499988919124,-79.0,126.0,1,0,0,1.2381190999876708,'click_2',1.3900018529966474e-05,0.015508500015130267,,,12,001,control,22,m,13,1,ila ale,2024-03-07_13h12.15.014,CPO_EEG,2022.2.1,59.89171577608033,
stimoli/02.subtle/JM2_Fear.mp4,fear,subtle,maschio,8,10,1646,926,4,,,,,,,,,,,,,,,,,1,0,1,0,,,,,,,,,0,32,32,3,,,0.13237930001923814,1836.5471702000068,0.1395885000238195,0.0007033000001683831,0.0007033000001683831,1847.1274985999917,1847.1274985999917,0.016468400019221008,-120.0,-172.0,1,0,0,3.379531499987934,'click_1',1.4599994756281376e-05,1850.5075754999998,0.01551090000430122,,1851.009433500003,1851.009433500003,1851.009433500003,0.0014352999860420823,0.01735420001205057,0.0014352999860420823,-145.0,-20.0,1,0,0,1.0555758000118658,'click_2',1.379998866468668e-05,0.014406100002815947,,,12,001,control,22,m,13,1,ila ale,2024-03-07_13h12.15.014,CPO_EEG,2022.2.1,59.89171577608033,
stimoli/01.full/F03-Anger-Face Forward.mp4,angry,full,femmina,2,6,720,576,34,,,,,,,,,,,,,,,,,1,0,1,0,,,,,,,,,0,33,33,33,,,0.1296738999953959,1853.6868168000074,0.13701040000887588,0.0007060999923851341,0.0007060999923851341,1859.668216799997,1859.668216799997,0.016507699998328462,-27.0,150.0,1,0,0,1.7567118000006303,'click_1',1.4299992471933365e-05,1861.4253394999832,0.015363199985586107,,1861.927229599998,1861.927229599998,1861.927229599998,0.0013347999774850905,0.017274699988774955,0.0013347999774850905,-9.0,-68.0,1,0,0,6.725707600009628,'click_2',1.3900018529966474e-05,0.015543200017418712,,,12,001,control,22,m,13,1,ila ale,2024-03-07_13h12.15.014,CPO_EEG,2022.2.1,59.89171577608033,
stimoli/02.subtle/JF2_Neutral.mp4,neutral,subtle,femmina,6,9,1646,926,26,,,,,,,,,,,,,,,,,1,0,1,0,,,,,,,,,0,34,34,25,,,0.13554620000650175,1870.2806199000042,0.14281399999163114,0.000745400000596419,0.000745400000596419,1879.7370459999947,1879.7370459999947,0.01638360001379624,-7.0,-6.0,1,0,0,0.8191147999896202,'click_1',1.4400022337213159e-05,1880.5569490999915,0.01564150000922382,,1881.0587809999997,1881.0587809999997,1881.0587809999997,0.0015239000204019248,0.017494300001999363,0.0015239000204019248,0.0,0.0,1,0,0,0.5016173999756575,'click_2',1.7200014553964138e-05,0.015389300009701401,,,12,001,control,22,m,13,1,ila ale,2024-03-07_13h12.15.014,CPO_EEG,2022.2.1,59.89171577608033,
stimoli/01.full/F01-Sadness-Face Forward.mp4,sad,full,femmina,1,6,720,576,45,,,,,,,,,,,,,,,,,1,0,1,0,,,,,,,,,0,35,35,44,,,0.1309430999972392,1883.1834692999837,0.13825980000547133,0.0007317999843508005,0.0007317999843508005,1889.1640755999833,1889.1640755999833,0.016553499997826293,-32.0,-196.0,1,0,0,2.476202199992258,'click_1',1.479999627918005e-05,1891.6406067000062,0.015396600007079542,,1892.1425853999972,1892.1425853999972,1892.1425853999972,0.0014475999923888594,0.017405299993697554,0.0014475999923888594,-82.0,-54.0,1,0,0,1.8237264000053983,'click_2',1.4100020052865148e-05,0.015801700006704777,,,12,001,control,22,m,13,1,ila ale,2024-03-07_13h12.15.014,CPO_EEG,2022.2.1,59.89171577608033,
stimoli/02.subtle/JF1_Anger.mp4,angry,subtle,femmina,5,10,1646,926,5,,,,,,,,,,,,,,,,,1,0,1,0,,,,,,,,,0,36,36,4,,,0.13459709999733604,1895.5931266999978,0.14195820002350956,0.0007170000171754509,0.0007170000171754509,1906.3719367999875,1906.3719367999875,0.016466100001707673,-112.0,-166.0,1,0,0,3.17798269999912,'click_1',1.379998866468668e-05,1909.5505731999874,0.01560270000481978,,1910.0524160999921,1910.0524160999921,1910.0524160999921,0.0014183000021148473,0.01748159999260679,0.0014183000021148473,-98.0,-23.0,1,0,0,1.9577277000062168,'click_2',1.379998866468668e-05,0.015413799992529675,,,12,001,control,22,m,13,1,ila ale,2024-03-07_13h12.15.014,CPO_EEG,2022.2.1,59.89171577608033,
stimoli/01.full/M02-Joy-Face Forward.mp4,happy,full,maschio,3,6,720,576,43,,,,,,,,,,,,,,,,,1,0,1,0,,,,,,,,,0,37,37,42,,,0.13118759999633767,1913.6334301999887,0.1384916999959387,0.000667200016323477,0.000667200016323477,1919.614762399986,1919.614762399986,0.016417000006185845,153.0,119.0,1,0,0,1.7398939999984577,'click_1',1.6700010746717453e-05,1921.3552590000036,0.015535100013948977,,1921.8572218999907,1921.8572218999907,1921.8572218999907,0.0016602000105194747,0.017491400009021163,0.0016602000105194747,192.0,-41.0,1,0,0,0.8691156999848317,'click_2',1.4099990949034691e-05,0.01582040000357665,,,12,001,control,22,m,13,1,ila ale,2024-03-07_13h12.15.014,CPO_EEG,2022.2.1,59.89171577608033,
stimoli/02.subtle/JM2_Happiness.mp4,happy,subtle,maschio,8,10,1646,926,16,,,,,,,,,,,,,,,,,1,0,1,0,,,,,,,,,0,38,38,15,,,0.1322271999961231,1924.3507087999897,0.13944979998632334,0.0007140000234358013,0.0007140000234358013,1934.9307356000063,1934.9307356000063,0.0163734000234399,114.0,82.0,1,0,0,5.1362066000001505,'click_1',1.4699995517730713e-05,1940.067657699983,0.015594800002872944,,1940.5694412000012,1940.5694412000012,1940.5694412000012,0.0013296999968588352,0.0173720000020694,0.0013296999968588352,20.0,104.0,1,0,0,0.8362936000048649,'click_2',1.4600023860111833e-05,0.015599400008795783,,,12,001,control,22,m,13,1,ila ale,2024-03-07_13h12.15.014,CPO_EEG,2022.2.1,59.89171577608033,
stimoli/01.full/M03-Joy-Face Forward.mp4,happy,full,maschio,4,6,720,576,44,,,,,,,,,,,,,,,,,1,0,1,0,,,,,,,,,0,39,39,43,,,0.1309707000036724,1943.0287891000044,0.13832330002333038,0.0006807000027038157,0.0006807000027038157,1949.0109006999992,1949.0109006999992,0.016441100015072152,178.0,122.0,1,0,0,0.9364397000172175,'click_1',1.4499993994832039e-05,1949.9477185999858,0.01536560000386089,,1950.4496314999997,1950.4496314999997,1950.4496314999997,0.001228799985256046,0.017249700002139434,0.001228799985256046,0.0,0.0,1,0,0,0.26728160001221113,'click_2',1.4199991710484028e-05,0.015587399975629523,,,12,001,control,22,m,13,1,ila ale,2024-03-07_13h12.15.014,CPO_EEG,2022.2.1,59.89171577608033,
stimoli/01.full/F01-Disgust-Face Forward.mp4,disgusted,full,femmina,1,6,720,576,37,,,,,,,,,,,,,,,,,1,0,1,0,,,,,,,,,0,40,40,36,,,0.13155009999172762,1952.3405512000027,0.13889760000165552,0.0007145999989006668,0.0007145999989006668,1958.320682999998,1958.320682999998,0.016358900000341237,-77.0,120.0,1,0,0,2.091702699981397,'click_1',1.6400008462369442e-05,1960.412654099986,0.015017099998658523,,1960.914644400007,1960.914644400007,1960.914644400007,0.0011993999942205846,0.017007999995257705,0.0011993999942205846,-128.0,89.0,1,0,0,1.4716275999962818,'click_2',1.3499986380338669e-05,0.015470099984668195,,,12,001,control,22,m,13,1,ila ale,2024-03-07_13h12.15.014,CPO_EEG,2022.2.1,59.89171577608033,
stimoli/01.full/M03-Neutral-Face Forward.mp4,neutral,full,maschio,4,6,720,576,56,,,,,,,,,,,,,,,,,1,0,1,0,,,,,,,,,0,41,41,55,,,0.13215709998621605,1964.0107439999992,0.13950210000621155,0.0007037000032141805,0.0007037000032141805,1969.9903291999944,1969.9903291999944,0.016492099995957687,1.0,5.0,1,0,0,2.8104988999839406,'click_1',1.4199991710484028e-05,1972.8013096000068,0.0154945999966003,,1973.3030625999963,1973.3030625999963,1973.3030625999963,0.0013106999977026135,0.01729930000146851,0.0013106999977026135,-124.0,-73.0,1,0,0,0.8030479000008199,'click_2',1.5699974028393626e-05,0.015455799992196262,,,12,001,control,22,m,13,1,ila ale,2024-03-07_13h12.15.014,CPO_EEG,2022.2.1,59.89171577608033,
stimoli/02.subtle/JM1_Neutral.mp4,neutral,subtle,maschio,7,10,1646,926,27,,,,,,,,,,,,,,,,,1,0,1,0,,,,,,,,,0,42,42,26,,,0.1311917999992147,1975.729488299985,0.1384916999959387,0.0007232000061776489,0.0007232000061776489,1986.1102930000052,1986.1102930000052,0.0164531999907922,-21.0,143.0,1,0,0,3.4129144999897107,'click_1',1.4499993994832039e-05,1989.5238465000002,0.015509100019698963,,1990.0254261000082,1990.0254261000082,1990.0254261000082,0.0010856000008061528,0.017118000017944723,0.0010856000008061528,38.0,131.0,1,0,0,0.9203471000073478,'click_2',1.4199991710484028e-05,0.015455299988389015,,,12,001,control,22,m,13,1,ila ale,2024-03-07_13h12.15.014,CPO_EEG,2022.2.1,59.89171577608033,
stimoli/01.full/M03-Anger-Face Forward.mp4,angry,full,maschio,4,6,720,576,36,,,,,,,,,,,,,,,,,1,0,1,0,,,,,,,,,0,43,43,35,,,0.13260079998872243,1992.570461700001,0.13990859998739325,0.0007110000005923212,0.0007110000005923212,1998.5497469999827,1998.5497469999827,0.01637329999357462,-41.0,207.0,1,0,0,2.024140299996361,'click_1',1.4099990949034691e-05,2000.574475900008,0.015519299980951473,,2001.076303799986,2001.076303799986,2001.076303799986,0.0013651000044774264,0.017324099986581132,0.0013651000044774264,-58.0,84.0,1,0,0,1.5387202999845613,'click_2',1.3899989426136017e-05,0.01583859999664128,,,12,001,control,22,m,13,1,ila ale,2024-03-07_13h12.15.014,CPO_EEG,2022.2.1,59.89171577608033,
stimoli/01.full/M03-Fear-Face Forward.mp4,fear,full,maschio,4,6,720,576,32,,,,,,,,,,,,,,,,,1,0,1,0,,,,,,,,,0,44,44,31,,,0.13135859998874366,2004.2384965999809,0.1386697000125423,0.0007991000020410866,0.0007991000020410866,2010.219427300006,2010.219427300006,0.01638509999611415,-111.0,-160.0,1,0,0,2.843019699997967,'click_1',1.4299992471933365e-05,2013.0633047999872,0.015563499997369945,,2013.565425799985,2013.565425799985,2013.565425799985,0.0017768999969121069,0.017695399990770966,0.0017768999969121069,-99.0,-12.0,1,0,0,2.643702100001974,'click_2',1.4399993233382702e-05,0.015511500008869916,,,12,001,control,22,m,13,1,ila ale,2024-03-07_13h12.15.014,CPO_EEG,2022.2.1,59.89171577608033,
stimoli/02.subtle/JF1_Disgust.mp4,disgusted,subtle,femmina,5,10,1646,926,9,,,,,,,,,,,,,,,,,1,0,1,0,,,,,,,,,0,45,45,8,,,0.1348555000149645,2017.8361715000065,0.14214810001431033,0.0006894000107422471,0.0006894000107422471,2028.6148774999892,2028.6148774999892,0.01640429999679327,-112.0,73.0,1,0,0,2.258190700027626,'click_1',1.4599994756281376e-05,2030.8738819999853,0.015664600010495633,,2031.3755717999884,2031.3755717999884,2031.3755717999884,0.0015195000160019845,0.017423400015104562,0.0015195000160019845,-84.0,120.0,1,0,0,1.1211289999773726,'click_2',1.4399993233382702e-05,0.015408499981276691,,,12,001,control,22,m,13,1,ila ale,2024-03-07_13h12.15.014,CPO_EEG,2022.2.1,59.89171577608033,
stimoli/01.full/M02-Fear-Face Forward.mp4,fear,full,maschio,3,6,720,576,31,,,,,,,,,,,,,,,,,1,0,1,0,,,,,,,,,0,46,46,30,,,0.13130909999017604,2034.1204765999864,0.13878769997972995,0.0007866999949328601,0.0007866999949328601,2040.1024000000034,2040.1024000000034,0.016358699998818338,52.0,-216.0,1,0,0,3.847980099992128,'click_1',1.7200014553964138e-05,2043.9513434999972,0.015690900007029995,,2044.4533542999998,2044.4533542999998,2044.4533542999998,0.0017641000158619136,0.01771580000058748,0.0017641000158619136,-76.0,-116.0,1,0,0,0.7527426999877207,'click_2',1.400001929141581e-05,0.015518500003963709,,,12,001,control,22,m,13,1,ila ale,2024-03-07_13h12.15.014,CPO_EEG,2022.2.1,59.89171577608033,
stimoli/01.full/F03-Sadness-Face Forward.mp4,sad,full,femmina,2,6,720,576,46,,,,,,,,,,,,,,,,,1,0,1,0,,,,,,,,,0,47,47,45,,,0.1319216999982018,2046.8296968000068,0.13878999999724329,0.0007242999854497612,0.0007242999854497612,2052.8110022000037,2052.8110022000037,0.016461799998069182,-47.0,-204.0,1,0,0,1.0365853999974206,'click_1',1.4199991710484028e-05,2053.848346999992,0.01571710000280291,,2054.3504945999885,2054.3504945999885,2054.3504945999885,0.0018435000092722476,0.017884900007629767,0.0018435000092722476,-82.0,-48.0,1,0,0,1.70676669999375,'click_2',1.7799990018829703e-05,0.015573799988487735,,,12,001,control,22,m,13,1,ila ale,2024-03-07_13h12.15.014,CPO_EEG,2022.2.1,59.89171577608033,
stimoli/02.subtle/JM1_Disgust.mp4,disgusted,subtle,maschio,7,10,1646,926,11,,,,,,,,,,,,,,,,,1,0,1,0,,,,,,,,,0,48,48,10,,,0.13317069999175146,2057.6825487999886,0.14045069998246618,0.000674000009894371,0.000674000009894371,2068.0606242000067,2068.0606242000067,0.01649929999257438,-89.0,116.0,1,0,0,1.9404416999896057,'click_1',1.4199991710484028e-05,2070.001622199983,0.015645299979951233,,2070.5033566000056,2070.5033566000056,2070.5033566000056,0.001479700003983453,0.017391799978213385,0.001479700003983453,-89.0,20.0,1,0,0,2.5930918999947608,'click_2',1.5099998563528061e-05,0.015742699994007125,,,12,001,control,22,m,13,1,ila ale,2024-03-07_13h12.15.014,CPO_EEG,2022.2.1,59.89171577608033,
stimoli/01.full/F01-Neutral-Face Forward.mp4,neutral,full,femmina,1,6,720,576,53,,,,,,,,,,,,,,,,,1,0,1,0,,,,,,,,,0,49,49,52,,,0.13154689999646507,2074.720290600002,0.13892200001282617,0.0009217000042553991,0.0009217000042553991,2080.7002257999848,2080.7002257999848,0.01630529999965802,2.0,5.0,1,0,0,0.9529771000088658,'click_1',1.4099990949034691e-05,2081.653985299985,0.015302399988286197,,2082.155818900006,2082.155818900006,2082.155818900006,0.0012420999992173165,0.017135899979621172,0.0012420999992173165,0.0,0.0,1,0,0,0.3005202999920584,'click_2',1.4499993994832039e-05,0.015746899996884167,,,12,001,control,22,m,13,1,ila ale,2024-03-07_13h12.15.014,CPO_EEG,2022.2.1,59.89171577608033,
stimoli/01.full/F01-Joy-Face Forward.mp4,happy,full,femmina,1,6,720,576,41,,,,,,,,,,,,,,,,,1,0,1,0,,,,,,,,,0,50,50,40,,,0.13230399999883957,2084.080899099994,0.13964199999463744,0.0006753999914508313,0.0006753999914508313,2090.06059139999,2090.06059139999,0.016540199983865023,173.0,116.0,1,0,0,2.2248966000042856,'click_1',1.3899989426136017e-05,2092.2860066999856,0.015557999984594062,,2092.78775649998,2092.78775649998,2092.78775649998,0.0013002000050619245,0.017286699992837384,0.0013002000050619245,133.0,24.0,1,0,0,1.8401394999818876,'click_2',1.4999997802078724e-05,0.015598499972838908,,,12,001,control,22,m,13,1,ila ale,2024-03-07_13h12.15.014,CPO_EEG,2022.2.1,59.89171577608033,
stimoli/02.subtle/JM2_Neutral.mp4,neutral,subtle,maschio,8,10,1646,926,28,,,,,,,,,,,,,,,,,1,0,1,0,,,,,,,,,0,51,51,27,,,0.13283649997902103,2096.252676300006,0.14003979999688454,0.0007103999960236251,0.0007103999960236251,2107.1999792999995,2107.1999792999995,0.016408399998908862,0.0,0.0,1,0,0,0.7524285999825224,'click_1',1.400001929141581e-05,2107.95298609999,0.015442600008100271,,2108.4547732000065,2108.4547732000065,2108.4547732000065,0.001263100013602525,0.017249800002900884,0.001263100013602525,0.0,0.0,1,0,0,0.40104369999608025,'click_2',1.5400000847876072e-05,0.015701600001193583,,,12,001,control,22,m,13,1,ila ale,2024-03-07_13h12.15.014,CPO_EEG,2022.2.1,59.89171577608033,
stimoli/02.subtle/JF2_Disgust.mp4,disgusted,subtle,femmina,6,10,1646,926,10,,,,,,,,,,,,,,,,,1,0,1,0,,,,,,,,,0,52,52,9,,,0.13509470000281,2110.4830513999914,0.14234630001010373,0.0006701999809592962,0.0006701999809592962,2120.860134399991,2120.860134399991,0.016483499988680705,-63.0,86.0,1,0,0,2.609856700000819,'click_1',1.4200020814314485e-05,2123.470495699992,0.015544699999736622,,2123.972454999981,2123.972454999981,2123.972454999981,0.0013770000077784061,0.01749500000732951,0.0013770000077784061,-143.0,23.0,1,0,0,3.9992811999982223,'click_2',1.3899989426136017e-05,0.015742699994007125,,,12,001,control,22,m,13,1,ila ale,2024-03-07_13h12.15.014,CPO_EEG,2022.2.1,59.89171577608033,
stimoli/01.full/F03-Disgust-Face Forward.mp4,disgusted,full,femmina,2,6,720,576,38,,,,,,,,,,,,,,,,,1,0,1,0,,,,,,,,,0,53,53,37,,,0.13154440000653267,2129.5952459999826,0.13885359998675995,0.0006936000136192888,0.0006936000136192888,2135.575167200004,2135.575167200004,0.016393600002629682,-24.0,141.0,1,0,0,1.3715289999963716,'click_1',1.3599987141788006e-05,2136.9473469000077,0.015569200011668727,,2137.4491784999846,2137.4491784999846,2137.4491784999846,0.001293999986955896,0.017415500013157725,0.001293999986955896,-63.0,117.0,1,0,0,1.4887106000096537,'click_2',1.3900018529966474e-05,0.015716000023530796,,,12,001,control,22,m,13,1,ila ale,2024-03-07_13h12.15.014,CPO_EEG,2022.2.1,59.89171577608033,
stimoli/02.subtle/JM1_Sadness.mp4,sad,subtle,maschio,7,10,1646,926,19,,,,,,,,,,,,,,,,,1,0,1,0,,,,,,,,,0,54,54,18,,,0.1337041000078898,2140.563473999995,0.1409218000189867,0.0007195000071078539,0.0007195000071078539,2150.940986200003,2150.940986200003,0.016410699987318367,-30.0,-150.0,1,0,0,1.5218828999786638,'click_1',1.4200020814314485e-05,2152.4636438000016,0.015649200009647757,,2152.965708999982,2152.965708999982,2152.965708999982,0.0016540000215172768,0.017736900015734136,0.0016540000215172768,-58.0,-88.0,1,0,0,1.3552026000106707,'click_2',1.4399993233382702e-05,0.015609499998390675,,,12,001,control,22,m,13,1,ila ale,2024-03-07_13h12.15.014,CPO_EEG,2022.2.1,59.89171577608033,
stimoli/02.subtle/JF1_Fear.mp4,fear,subtle,femmina,5,10,1646,926,1,,,,,,,,,,,,,,,,,1,0,1,0,,,,,,,,,0,55,55,0,,,0.13402979998500086,2155.946935199987,0.14132520000566728,0.00067559999297373,0.00067559999297373,2166.726239599986,2166.726239599986,0.01633600000059232,-62.0,-123.0,1,0,0,2.2245299000060186,'click_1',1.5200028428807855e-05,2168.951526299992,0.01556880000862293,,2169.4531044999894,2169.4531044999894,2169.4531044999894,0.0013049000117462128,0.017156700021587312,0.0013049000117462128,-169.0,-110.0,1,0,0,1.940764400002081,'click_2',1.3500015484169126e-05,0.015519200009293854,,,12,001,control,22,m,13,1,ila ale,2024-03-07_13h12.15.014,CPO_EEG,2022.2.1,59.89171577608033,
,,,,,,,,,,,,,,,,,,,,,,,,,1,0,1,0,,,,,,,,,,,,,,,,,,,,,,,,,,,,,,,,,,,,,,,,,,,,,,,,,,,12,001,control,22,m,13,1,ila ale,2024-03-07_13h12.15.014,CPO_EEG,2022.2.1,59.89171577608033,
