"file","file_emotion","file_emotion_level","file_gender","file_id","file_duration","size_w","size_h","trigger","loop_practice_full.thisRepN","loop_practice_full.thisTrialN","loop_practice_full.thisN","loop_practice_full.thisIndex","loop_istr_practice.thisRepN","loop_istr_practice.thisTrialN","loop_istr_practice.thisN","loop_istr_practice.thisIndex","tuto.thisRepN","tuto.thisTrialN","tuto.thisN","tuto.thisIndex","loop_practice.thisRepN","loop_practice.thisTrialN","loop_practice.thisN","loop_practice.thisIndex","exp_blocks.thisRepN","exp_blocks.thisTrialN","exp_blocks.thisN","exp_blocks.thisIndex","istr_1.thisRepN","istr_1.thisTrialN","istr_1.thisN","istr_1.thisIndex","istr_2.thisRepN","istr_2.thisTrialN","istr_2.thisN","istr_2.thisIndex","exp.thisRepN","exp.thisTrialN","exp.thisN","exp.thisIndex","img_tutorial.started","key_resp.started","p_port.started","mov_target.started","p_port.stopped","p_port_2.started","primary.started","img_primary_wheel.started","click_1.started","p_port_2.stopped","primary.x","primary.y","primary.leftButton","primary.midButton","primary.rightButton","primary.time","primary.clicked_name","p_port_4.started","txt_iwi.started","p_port_4.stopped","txt_iwi.stopped","p_port_3.started","secondary.started","img_secondary_wheel.started","click_2.started","primary_pos.started","p_port_3.stopped","secondary.x","secondary.y","secondary.leftButton","secondary.midButton","secondary.rightButton","secondary.time","secondary.clicked_name","p_port_5.started","p_port_5.stopped","kb_end_practice.keys","kb_end_practice.rt","participant","session","group","age","sex","education","practice","experimenter","date","expName","psychopyVersion","frameRate","X"
"stimoli/03.practice/F04-Surprise-Face Forward.mp4","surprise","full","femmina",9,6,700,700,61,0,0,0,0,NA,NA,NA,NA,NA,NA,NA,NA,0,0,0,4,NA,NA,NA,NA,NA,NA,NA,NA,NA,NA,NA,NA,NA,NA,NA,NA,165.263648400025,165.263648400025,0.533450799994171,170.026226999995,0.541285999992397,0.000812100013718009,0.000812100013718009,176.145327200007,176.145327200007,0.00945930002490059,40,-180,1,0,0,6.86976899998263,"'click_1'",1.78999616764486e-05,183.011581300001,0.00407709996215999,183.516031900013,-0.000518999993801117,-0.000518999993801117,183.516031900013,183.516031900013,183.516031900013,0.00851620000321418,37,-172,1,0,0,10.0847030000295,"'click_2'",1.66000099852681e-05,0.00844120001420379,"",NA,13,1,"control",25,"f",18,1,"ale_ila","2024-04-22_17h08.40.556","CPO_EEG","2022.2.1",99.8271991041581,NA
"stimoli/03.practice/F04-Neutral-Face Forward.mp4","neutral","full","femmina",9,6,700,700,62,0,0,0,0,NA,NA,NA,NA,NA,NA,NA,NA,0,1,1,5,NA,NA,NA,NA,NA,NA,NA,NA,NA,NA,NA,NA,NA,NA,NA,NA,NA,NA,0.143790300004184,195.243940400018,0.151072799984831,0.000785099982749671,0.000785099982749671,201.19599680003,201.19599680003,0.00969709997298196,85,-126,1,0,0,4.15244209999219,"'click_1'",1.51999993249774e-05,205.349270600011,0.00890780001645908,NA,0.00262310000834987,0.00262310000834987,205.852215500025,205.852215500025,205.852215500025,0.0118342000059783,91,-127,1,0,0,5.09770640003262,"'click_2'",1.48999970406294e-05,0.00879210000857711,"",NA,13,1,"control",25,"f",18,1,"ale_ila","2024-04-22_17h08.40.556","CPO_EEG","2022.2.1",99.8271991041581,NA
"stimoli/03.practice/F04-Sadness-Face Forward.mp4","sadness","full","femmina",9,6,700,700,60,0,0,0,0,NA,NA,NA,NA,NA,NA,NA,NA,0,2,2,3,NA,NA,NA,NA,NA,NA,NA,NA,NA,NA,NA,NA,NA,NA,NA,NA,NA,NA,0.144066700013354,212.592931499996,0.151354199973866,0.000774100015405566,0.000774100015405566,218.545924200036,218.545924200036,0.00970510003389791,-37,-138,1,0,0,5.09783520002384,"'click_1'",1.45999947562814e-05,223.644431599998,0.00882540002930909,NA,0.00237729999935254,0.00237729999935254,224.147225300025,224.147225300025,224.147225300025,0.011619700002484,-87,-62,1,0,0,4.0524948000093,"'click_2'",2.24999967031181e-05,0.00870710000162944,"",NA,13,1,"control",25,"f",18,1,"ale_ila","2024-04-22_17h08.40.556","CPO_EEG","2022.2.1",99.8271991041581,NA
"stimoli/03.practice/F04-Joy-Face Forward.mp4","joy","full","femmina",9,6,700,700,59,0,0,0,0,NA,NA,NA,NA,NA,NA,NA,NA,0,3,3,2,NA,NA,NA,NA,NA,NA,NA,NA,NA,NA,NA,NA,NA,NA,NA,NA,NA,NA,0.150232399988454,229.848891200032,0.157613399962429,0.000855799997225404,0.000855799997225404,235.805647300032,235.805647300032,0.00977099995361641,128,74,1,0,0,3.62915499997325,"'click_1'",1.54000008478761e-05,239.435449899989,0.00873260002117604,NA,0.00231880001956597,0.00231880001956597,239.938210599998,239.938210599998,239.938210599998,0.0115176000399515,141,32,1,0,0,3.31844679999631,"'click_2'",2.2500054910779e-05,0.0082852000487037,"",NA,13,1,"control",25,"f",18,1,"ale_ila","2024-04-22_17h08.40.556","CPO_EEG","2022.2.1",99.8271991041581,NA
"stimoli/03.practice/F04-Disgust-Face Forward.mp4","disgust","full","femmina",9,6,700,700,58,0,0,0,0,NA,NA,NA,NA,NA,NA,NA,NA,0,4,4,1,NA,NA,NA,NA,NA,NA,NA,NA,NA,NA,NA,NA,NA,NA,NA,NA,NA,NA,0.141300600022078,244.896943600033,0.148627100046724,0.000827700016088784,0.000827700016088784,250.851312500017,250.851312500017,0.00973360001808032,-32,179,1,0,0,3.39817369997036,"'click_1'",1.63999502547085e-05,254.250101800018,0.00876179995248094,NA,0.00263249996351078,0.00263249996351078,254.753158900014,254.753158900014,254.753158900014,0.0118191999499686,-78,127,1,0,0,2.61516639997717,"'click_2'",1.40999909490347e-05,0.00823660002788529,"",NA,13,1,"control",25,"f",18,1,"ale_ila","2024-04-22_17h08.40.556","CPO_EEG","2022.2.1",99.8271991041581,NA
"stimoli/03.practice/F04-Anger-Face Forward.mp4","anger","full","femmina",9,6,700,700,57,0,0,0,0,NA,NA,NA,NA,NA,NA,NA,NA,0,5,5,0,NA,NA,NA,NA,NA,NA,NA,NA,NA,NA,NA,NA,NA,NA,NA,NA,NA,NA,0.147403399983887,259.014983100002,0.154919900000095,0.000815400038845837,0.000815400038845837,264.963554200018,264.963554200018,0.00975750002544373,-130,95,1,0,0,4.8364366000169,"'click_1'",1.51999993249774e-05,269.800337199995,0.0084826999809593,NA,0.00207099999533966,0.00207099999533966,270.30316760001,270.30316760001,270.30316760001,0.0113409999758005,-66,-115,1,0,0,2.31260580004891,"'click_2'",1.49999978020787e-05,0.00878739997278899,"",NA,13,1,"control",25,"f",18,1,"ale_ila","2024-04-22_17h08.40.556","CPO_EEG","2022.2.1",99.8271991041581,NA
"","","","",NA,NA,NA,NA,NA,0,0,0,0,NA,NA,NA,NA,NA,NA,NA,NA,NA,NA,NA,NA,NA,NA,NA,NA,NA,NA,NA,NA,NA,NA,NA,NA,NA,NA,NA,NA,NA,NA,NA,NA,NA,NA,NA,NA,NA,NA,NA,NA,NA,NA,NA,NA,"",NA,NA,NA,NA,NA,NA,NA,NA,NA,NA,NA,NA,NA,NA,NA,NA,"",NA,NA,"n",20.5684624999994,13,1,"control",25,"f",18,1,"ale_ila","2024-04-22_17h08.40.556","CPO_EEG","2022.2.1",99.8271991041581,NA
"","","","",NA,NA,NA,NA,NA,NA,NA,NA,NA,NA,NA,NA,NA,NA,NA,NA,NA,NA,NA,NA,NA,0,0,0,0,0,0,0,0,NA,NA,NA,NA,NA,NA,NA,NA,NA,NA,NA,NA,NA,NA,NA,NA,NA,NA,NA,NA,NA,NA,NA,NA,"",NA,NA,NA,NA,NA,NA,NA,NA,NA,NA,NA,NA,NA,NA,NA,NA,"",NA,NA,"",NA,13,1,"control",25,"f",18,1,"ale_ila","2024-04-22_17h08.40.556","CPO_EEG","2022.2.1",99.8271991041581,NA
"stimoli/02.subtle/JM2_Anger.mp4","angry","subtle","maschio",8,10,1646,926,8,NA,NA,NA,NA,NA,NA,NA,NA,NA,NA,NA,NA,NA,NA,NA,NA,0,0,0,0,NA,NA,NA,NA,NA,NA,NA,NA,0,0,0,7,NA,NA,0.14468929998111,300.538184300007,0.151995599968359,0.000685600040014833,0.000685600040014833,311.454210199998,311.454210199998,0.00990100001217797,-32,-159,1,0,0,3.73000929999398,"'click_1'",1.56000023707747e-05,315.18457360001,0.00839029997587204,NA,0.00170749996323138,0.00170749996323138,315.687295000011,315.687295000011,315.687295000011,0.0111063999938779,-28,150,1,0,0,3.73056160000851,"'click_2'",1.51999993249774e-05,0.00849009997909889,"",NA,13,1,"control",25,"f",18,1,"ale_ila","2024-04-22_17h08.40.556","CPO_EEG","2022.2.1",99.8271991041581,NA
"stimoli/02.subtle/JM1_Neutral.mp4","neutral","subtle","maschio",7,10,1646,926,27,NA,NA,NA,NA,NA,NA,NA,NA,NA,NA,NA,NA,NA,NA,NA,NA,0,0,0,0,NA,NA,NA,NA,NA,NA,NA,NA,0,1,1,26,NA,NA,0.149642099975608,321.066434699984,0.156838099996094,0.000747299985960126,0.000747299985960126,331.417675200035,331.417675200035,0.00973699998576194,-128,92,1,0,0,2.49329910002416,"'click_1'",1.54000008478761e-05,333.911605400033,0.00874069996643811,NA,0.00212469999678433,0.00212469999678433,334.414482499997,334.414482499997,334.414482499997,0.0116518000140786,-84,137,1,0,0,2.48350780003238,"'click_2'",1.479999627918e-05,0.00861149997217581,"",NA,13,1,"control",25,"f",18,1,"ale_ila","2024-04-22_17h08.40.556","CPO_EEG","2022.2.1",99.8271991041581,NA
"stimoli/02.subtle/JM1_Happiness.mp4","happy","subtle","maschio",7,10,1646,926,15,NA,NA,NA,NA,NA,NA,NA,NA,NA,NA,NA,NA,NA,NA,NA,NA,0,0,0,0,NA,NA,NA,NA,NA,NA,NA,NA,0,2,2,14,NA,NA,0.143067499971949,338.5398805,0.150389699963853,0.000727700011339039,0.000727700011339039,348.896006800001,348.896006800001,0.00977120001334697,161,32,1,0,0,3.33805169997504,"'click_1'",2.22999951802194e-05,352.234557899996,0.00868379999883473,NA,0.00221309997141361,0.00221309997141361,352.737442300015,352.737442300015,352.737442300015,0.0115865999832749,-118,79,1,0,0,2.32275469996966,"'click_2'",1.39999901875854e-05,0.00877580000087619,"",NA,13,1,"control",25,"f",18,1,"ale_ila","2024-04-22_17h08.40.556","CPO_EEG","2022.2.1",99.8271991041581,NA
"stimoli/01.full/F03-Sadness-Face Forward.mp4","sad","full","femmina",2,6,720,576,46,NA,NA,NA,NA,NA,NA,NA,NA,NA,NA,NA,NA,NA,NA,NA,NA,0,0,0,0,NA,NA,NA,NA,NA,NA,NA,NA,0,3,3,45,NA,NA,0.149833099974785,356.708673199988,0.157064399973024,0.000770100043155253,0.000770100043155253,362.666083500022,362.666083500022,0.00979710003593937,-43,-186,1,0,0,4.93641760002356,"'click_1'",1.49999978020787e-05,367.603031800012,0.00877219997346401,NA,0.00218710000626743,0.00218710000626743,368.10587920004,368.10587920004,368.10587920004,0.0116388999740593,-145,-35,1,0,0,3.79129600001033,"'click_2'",1.48999970406294e-05,0.00844199996208772,"",NA,13,1,"control",25,"f",18,1,"ale_ila","2024-04-22_17h08.40.556","CPO_EEG","2022.2.1",99.8271991041581,NA
"stimoli/01.full/M02-Surprise-Face Forward.mp4","surprised","full","maschio",3,6,720,576,51,NA,NA,NA,NA,NA,NA,NA,NA,NA,NA,NA,NA,NA,NA,NA,NA,0,0,0,0,NA,NA,NA,NA,NA,NA,NA,NA,0,4,4,50,NA,NA,0.148536099994089,373.544506700011,0.155901099962648,0.000719600007869303,0.000719600007869303,379.501178000006,379.501178000006,0.00976939999964088,30,-144,1,0,0,4.45320009998977,"'click_1'",1.49999978020787e-05,383.955321800022,0.00915990001522005,NA,0.00252500001806766,0.00252500001806766,384.458020900027,384.458020900027,384.458020900027,0.0118680999730714,85,-119,1,0,0,3.7003555999836,"'click_2'",1.479999627918e-05,0.00894600001629442,"",NA,13,1,"control",25,"f",18,1,"ale_ila","2024-04-22_17h08.40.556","CPO_EEG","2022.2.1",99.8271991041581,NA
"stimoli/02.subtle/JF1_Surprise.mp4","surprised","subtle","femmina",5,10,1646,926,21,NA,NA,NA,NA,NA,NA,NA,NA,NA,NA,NA,NA,NA,NA,NA,NA,0,0,0,0,NA,NA,NA,NA,NA,NA,NA,NA,0,5,5,20,NA,NA,0.152833400003146,389.809993700008,0.160169199982192,0.00069329998223111,0.00069329998223111,400.559171600034,400.559171600034,0.00980060000438243,112,-173,1,0,0,2.00166919996263,"'click_1'",1.51999993249774e-05,402.560344099998,0.00782220001565292,NA,0.00141660001827404,0.00141660001827404,403.063120700011,403.063120700011,403.063120700011,0.0105961000081152,28,-108,1,0,0,3.04657790000783,"'click_2'",1.479999627918e-05,0.00873120001051575,"",NA,13,1,"control",25,"f",18,1,"ale_ila","2024-04-22_17h08.40.556","CPO_EEG","2022.2.1",99.8271991041581,NA
"stimoli/02.subtle/JM1_Anger.mp4","angry","subtle","maschio",7,10,1646,926,7,NA,NA,NA,NA,NA,NA,NA,NA,NA,NA,NA,NA,NA,NA,NA,NA,0,0,0,0,NA,NA,NA,NA,NA,NA,NA,NA,0,6,6,6,NA,NA,0.151214300014544,407.760055300023,0.158645600022282,0.000715099973604083,0.000715099973604083,418.109059300041,418.109059300041,0.00969580002129078,-96,151,1,0,0,4.8467206999776,"'click_1'",1.53000000864267e-05,422.95647590002,0.00888259999919683,NA,0.0024200999760069,0.0024200999760069,423.459239999996,423.459239999996,423.459239999996,0.0116185999941081,-137,96,1,0,0,1.30694260000018,"'click_2'",1.45999947562814e-05,0.00884820002829656,"",NA,13,1,"control",25,"f",18,1,"ale_ila","2024-04-22_17h08.40.556","CPO_EEG","2022.2.1",99.8271991041581,NA
"stimoli/01.full/F01-Joy-Face Forward.mp4","happy","full","femmina",1,6,720,576,41,NA,NA,NA,NA,NA,NA,NA,NA,NA,NA,NA,NA,NA,NA,NA,NA,0,0,0,0,NA,NA,NA,NA,NA,NA,NA,NA,0,7,7,40,NA,NA,0.148376099998131,426.413481399999,0.155751800048165,0.000716100039426237,0.000716100039426237,432.371308800008,432.371308800008,0.00973320001503453,130,92,1,0,0,2.41365569998743,"'click_1'",1.49999978020787e-05,434.784921300015,0.00812780001433566,NA,0.00183870003093034,0.00183870003093034,435.287791799987,435.287791799987,435.287791799987,0.0110155000002123,104,25,1,0,0,1.56825700000627,"'click_2'",2.19999928958714e-05,0.00891419994877651,"",NA,13,1,"control",25,"f",18,1,"ale_ila","2024-04-22_17h08.40.556","CPO_EEG","2022.2.1",99.8271991041581,NA
"stimoli/02.subtle/JF1_Anger.mp4","angry","subtle","femmina",5,10,1646,926,5,NA,NA,NA,NA,NA,NA,NA,NA,NA,NA,NA,NA,NA,NA,NA,NA,0,0,0,0,NA,NA,NA,NA,NA,NA,NA,NA,0,8,8,4,NA,NA,0.151777999999467,438.506769600033,0.159063200000674,0.000732200045604259,0.000732200045604259,449.258775199996,449.258775199996,0.00971520005259663,-174,-37,1,0,0,3.30754449998494,"'click_1'",1.49999978020787e-05,452.567060300033,0.00886800000444055,NA,0.00242109998362139,0.00242109998362139,453.069950300036,453.069950300036,453.069950300036,0.0117611999739893,-16,-133,1,0,0,2.15199340000981,"'click_2'",1.41000491566956e-05,0.00894309999421239,"",NA,13,1,"control",25,"f",18,1,"ale_ila","2024-04-22_17h08.40.556","CPO_EEG","2022.2.1",99.8271991041581,NA
"stimoli/02.subtle/JF2_Sadness.mp4","sad","subtle","femmina",6,8,1646,926,18,NA,NA,NA,NA,NA,NA,NA,NA,NA,NA,NA,NA,NA,NA,NA,NA,0,0,0,0,NA,NA,NA,NA,NA,NA,NA,NA,0,9,9,17,NA,NA,0.152728100016247,456.873276100028,0.159896700002719,0.000698700023349375,0.000698700023349375,465.190840199997,465.190840199997,0.00990459998138249,-147,103,1,0,0,3.41862890002085,"'click_1'",1.45999947562814e-05,468.609945500037,0.00887799996417016,NA,0.00238459999673069,0.00238459999673069,469.112664100016,469.112664100016,469.112664100016,0.0116265999968164,-23,-113,1,0,0,2.9757513999939,"'click_2'",1.4499993994832e-05,0.00921109999762848,"",NA,13,1,"control",25,"f",18,1,"ale_ila","2024-04-22_17h08.40.556","CPO_EEG","2022.2.1",99.8271991041581,NA
"stimoli/02.subtle/JF1_Happiness.mp4","happy","subtle","femmina",5,10,1646,926,13,NA,NA,NA,NA,NA,NA,NA,NA,NA,NA,NA,NA,NA,NA,NA,NA,0,0,0,0,NA,NA,NA,NA,NA,NA,NA,NA,0,10,10,12,NA,NA,0.154501400014851,473.741811099986,0.161861500004306,0.000820600020233542,0.000820600020233542,484.489968100039,484.489968100039,0.00972289999481291,112,156,1,0,0,1.80906780000078,"'click_1'",1.51999993249774e-05,486.299979200005,0.00906160002341494,NA,0.00257040001451969,0.00257040001451969,486.802715900005,486.802715900005,486.802715900005,0.0117936999886297,136,93,1,0,0,2.1517597999773,"'click_2'",2.80000385828316e-05,0.00893910002196208,"",NA,13,1,"control",25,"f",18,1,"ale_ila","2024-04-22_17h08.40.556","CPO_EEG","2022.2.1",99.8271991041581,NA
"stimoli/01.full/M02-Anger-Face Forward.mp4","angry","full","maschio",3,6,720,576,35,NA,NA,NA,NA,NA,NA,NA,NA,NA,NA,NA,NA,NA,NA,NA,NA,0,0,0,0,NA,NA,NA,NA,NA,NA,NA,NA,0,11,11,34,NA,NA,0.149888999992982,490.603276400012,0.157289099995978,0.000848199997562915,0.000848199997562915,496.559521100018,496.559521100018,0.00971290003508329,-141,106,1,0,0,10.9401401000214,"'click_1'",1.46999955177307e-05,507.500384600018,0.00874980003573,NA,0.00223750004079193,0.00223750004079193,508.003136000014,508.003136000014,508.003136000014,0.0115179000422359,80,-126,1,0,0,2.62414080003509,"'click_2'",1.479999627918e-05,0.00887119997059926,"",NA,13,1,"control",25,"f",18,1,"ale_ila","2024-04-22_17h08.40.556","CPO_EEG","2022.2.1",99.8271991041581,NA
"stimoli/02.subtle/JM1_Surprise.mp4","surprised","subtle","maschio",7,10,1646,926,23,NA,NA,NA,NA,NA,NA,NA,NA,NA,NA,NA,NA,NA,NA,NA,NA,0,0,0,0,NA,NA,NA,NA,NA,NA,NA,NA,0,12,12,22,NA,NA,0.154146599990781,512.280331199989,0.161502700007986,0.000706200022250414,0.000706200022250414,522.636336399999,522.636336399999,0.00987860001623631,38,-145,1,0,0,5.57998959999532,"'click_1'",2.7499976567924e-05,528.216985900013,0.00901149999117479,NA,0.00260930001968518,0.00260930001968518,528.719773399993,528.719773399993,528.719773399993,0.0117725000018254,118,-73,1,0,0,2.3625210999744,"'click_2'",2.67999712377787e-05,0.00880239997059107,"",NA,13,1,"control",25,"f",18,1,"ale_ila","2024-04-22_17h08.40.556","CPO_EEG","2022.2.1",99.8271991041581,NA
"stimoli/01.full/F03-Neutral-Face Forward.mp4","neutral","full","femmina",2,6,720,576,54,NA,NA,NA,NA,NA,NA,NA,NA,NA,NA,NA,NA,NA,NA,NA,NA,0,0,0,0,NA,NA,NA,NA,NA,NA,NA,NA,0,13,13,53,NA,NA,0.143930199963506,532.72550260002,0.151434999948833,0.000805800023954362,0.000805800023954362,538.678397600015,538.678397600015,0.0097492000204511,-1,-1,1,0,0,7.17942219995894,"'click_1'",1.479999627918e-05,545.858477900038,0.00876519997837022,NA,0.00217399996472523,0.00217399996472523,546.361139899993,546.361139899993,546.361139899993,0.011431899969466,-1,4,1,0,0,3.36801239999477,"'click_2'",1.45999947562814e-05,0.00901789998169988,"",NA,13,1,"control",25,"f",18,1,"ale_ila","2024-04-22_17h08.40.556","CPO_EEG","2022.2.1",99.8271991041581,NA
"stimoli/02.subtle/JF2_Surprise.mp4","surprised","subtle","femmina",6,10,1646,926,22,NA,NA,NA,NA,NA,NA,NA,NA,NA,NA,NA,NA,NA,NA,NA,NA,0,0,0,0,NA,NA,NA,NA,NA,NA,NA,NA,0,14,14,21,NA,NA,0.152681899955496,551.380541099992,0.159862299973611,0.000709799991454929,0.000709799991454929,561.738700699992,561.738700699992,0.010174700000789,-155,98,1,0,0,2.11131979996571,"'click_1'",1.46999955177307e-05,563.850205000024,0.00882300001103431,NA,0.00238339998759329,0.00238339998759329,564.352978900017,564.352978900017,564.352978900017,0.0116042000008747,-137,28,1,0,0,1.37747820001096,"'click_2'",1.43999932333827e-05,0.00877630000468343,"",NA,13,1,"control",25,"f",18,1,"ale_ila","2024-04-22_17h08.40.556","CPO_EEG","2022.2.1",99.8271991041581,NA
"stimoli/01.full/M03-Neutral-Face Forward.mp4","neutral","full","maschio",4,6,720,576,56,NA,NA,NA,NA,NA,NA,NA,NA,NA,NA,NA,NA,NA,NA,NA,NA,0,0,0,0,NA,NA,NA,NA,NA,NA,NA,NA,0,15,15,55,NA,NA,0.147925400000531,567.377259300032,0.155166300013661,0.000765000004321337,0.000765000004321337,573.334716400015,573.334716400015,0.00980320002418011,-3,0,1,0,0,3.61909110000124,"'click_1'",1.50999985635281e-05,576.954620200035,0.00900639995234087,NA,0.00240989995654672,0.00240989995654672,577.457419499988,577.457419499988,577.457419499988,0.0118185000028461,0,0,1,0,0,0.773840600042604,"'click_2'",1.42999924719334e-05,0.00868430000264198,"",NA,13,1,"control",25,"f",18,1,"ale_ila","2024-04-22_17h08.40.556","CPO_EEG","2022.2.1",99.8271991041581,NA
"stimoli/02.subtle/JF2_Disgust.mp4","disgusted","subtle","femmina",6,10,1646,926,10,NA,NA,NA,NA,NA,NA,NA,NA,NA,NA,NA,NA,NA,NA,NA,NA,0,0,0,0,NA,NA,NA,NA,NA,NA,NA,NA,0,16,16,9,NA,NA,0.151400200033095,579.881445700012,0.158708500035573,0.000699900032486767,0.000699900032486767,590.230291399988,590.230291399988,0.00989909999771044,-103,69,1,0,0,3.84089809999568,"'click_1'",1.40999909490347e-05,594.071704800008,0.00893820001510903,NA,0.00266320002265275,0.00266320002265275,594.57462020003,594.57462020003,594.57462020003,0.0118559999973513,-127,25,1,0,0,2.48339529999066,"'click_2'",1.479999627918e-05,0.00863190001109615,"",NA,13,1,"control",25,"f",18,1,"ale_ila","2024-04-22_17h08.40.556","CPO_EEG","2022.2.1",99.8271991041581,NA
"stimoli/01.full/M03-Surprise-Face Forward.mp4","surprised","full","maschio",4,6,720,576,52,NA,NA,NA,NA,NA,NA,NA,NA,NA,NA,NA,NA,NA,NA,NA,NA,0,0,0,0,NA,NA,NA,NA,NA,NA,NA,NA,0,17,17,51,NA,NA,0.149589300039224,598.706543400011,0.156882799987216,0.000791499973274767,0.000791499973274767,604.664253399998,604.664253399998,0.0096736999694258,26,-118,1,0,0,4.57457489997614,"'click_1'",1.45999947562814e-05,609.239612900012,0.00891629996476695,NA,0.00237949995789677,0.00237949995789677,609.742303800012,609.742303800012,609.742303800012,0.0116229999694042,-4,-25,1,0,0,3.89116130000912,"'click_2'",1.39999901875854e-05,0.00908059999346733,"",NA,13,1,"control",25,"f",18,1,"ale_ila","2024-04-22_17h08.40.556","CPO_EEG","2022.2.1",99.8271991041581,NA
"stimoli/01.full/M03-Fear-Face Forward.mp4","fear","full","maschio",4,6,720,576,32,NA,NA,NA,NA,NA,NA,NA,NA,NA,NA,NA,NA,NA,NA,NA,NA,0,0,0,0,NA,NA,NA,NA,NA,NA,NA,NA,0,18,18,31,NA,NA,0.149489300034475,615.281600099988,0.15659600001527,0.000677300035022199,0.000677300035022199,621.229884500033,621.229884500033,0.00991160003468394,54,-196,1,0,0,1.69901610002853,"'click_1'",1.46999955177307e-05,622.929494999989,0.00903749995632097,NA,0.00263449997873977,0.00263449997873977,623.432247599994,623.432247599994,623.432247599994,0.0118095999932848,34,-196,1,0,0,1.4879625000176,"'click_2'",1.48999970406294e-05,0.00873060000594705,"",NA,13,1,"control",25,"f",18,1,"ale_ila","2024-04-22_17h08.40.556","CPO_EEG","2022.2.1",99.8271991041581,NA
"stimoli/02.subtle/JM2_Happiness.mp4","happy","subtle","maschio",8,10,1646,926,16,NA,NA,NA,NA,NA,NA,NA,NA,NA,NA,NA,NA,NA,NA,NA,NA,0,0,0,0,NA,NA,NA,NA,NA,NA,NA,NA,0,19,19,15,NA,NA,0.154762500023935,626.573805799999,0.162018900038674,0.00067410001065582,0.00067410001065582,637.1312837,637.1312837,0.00985049997689202,195,37,1,0,0,1.99381140002515,"'click_1'",1.46999955177307e-05,639.125638100028,0.00892589997965842,NA,0.002214299980551,0.002214299980551,639.628360700037,639.628360700037,639.628360700037,0.011673700006213,159,103,1,0,0,1.27721959998598,"'click_2'",1.48999970406294e-05,0.00878870004089549,"",NA,13,1,"control",25,"f",18,1,"ale_ila","2024-04-22_17h08.40.556","CPO_EEG","2022.2.1",99.8271991041581,NA
"stimoli/02.subtle/JF2_Neutral.mp4","neutral","subtle","femmina",6,9,1646,926,26,NA,NA,NA,NA,NA,NA,NA,NA,NA,NA,NA,NA,NA,NA,NA,NA,0,0,0,0,NA,NA,NA,NA,NA,NA,NA,NA,0,20,20,25,NA,NA,0.15283850004198,642.552114600025,0.155168500030413,0.000666900014039129,0.000666900014039129,651.98962290003,651.98962290003,0.00986180000472814,15,80,1,0,0,5.45923889998812,"'click_1'",1.45999947562814e-05,657.449526400014,0.00906750001013279,NA,0.00255430000834167,0.00255430000834167,657.952306899999,657.952306899999,657.952306899999,0.0118627999909222,3,26,1,0,0,1.4475615999545,"'click_2'",1.59000046551228e-05,0.00874840002506971,"",NA,13,1,"control",25,"f",18,1,"ale_ila","2024-04-22_17h08.40.556","CPO_EEG","2022.2.1",99.8271991041581,NA
"stimoli/01.full/F03-Fear-Face Forward.mp4","fear","full","femmina",2,6,720,576,30,NA,NA,NA,NA,NA,NA,NA,NA,NA,NA,NA,NA,NA,NA,NA,NA,0,0,0,0,NA,NA,NA,NA,NA,NA,NA,NA,0,21,21,29,NA,NA,0.143822900019586,661.042661499989,0.151203999994323,0.000811100006103516,0.000811100006103516,666.994975200039,666.994975200039,0.00989550002850592,38,-158,1,0,0,6.84713760000886,"'click_1'",2.63000256381929e-05,673.842556699994,0.00860940001439303,NA,0.00212999997893348,0.00212999997893348,674.345296100015,674.345296100015,674.345296100015,0.0113958999863826,-89,-113,1,0,0,1.2567097999854,"'click_2'",1.479999627918e-05,0.00873249996220693,"",NA,13,1,"control",25,"f",18,1,"ale_ila","2024-04-22_17h08.40.556","CPO_EEG","2022.2.1",99.8271991041581,NA
"stimoli/01.full/F03-Joy-Face Forward.mp4","happy","full","femmina",2,6,720,576,42,NA,NA,NA,NA,NA,NA,NA,NA,NA,NA,NA,NA,NA,NA,NA,NA,0,0,0,0,NA,NA,NA,NA,NA,NA,NA,NA,0,22,22,41,NA,NA,0.142581399995834,677.243614400038,0.150002499984112,0.000806300027761608,0.000806300027761608,683.197698700009,683.197698700009,0.00975450000260025,125,90,1,0,0,5.29878050001571,"'click_1'",1.58000038936734e-05,688.497479100013,0.00907510000979528,NA,0.00245860003633425,0.00245860003633425,689.000103700033,689.000103700033,689.000103700033,0.01169180002762,72,91,1,0,0,2.26223920000484,"'click_2'",1.40999909490347e-05,0.00877089996356517,"",NA,13,1,"control",25,"f",18,1,"ale_ila","2024-04-22_17h08.40.556","CPO_EEG","2022.2.1",99.8271991041581,NA
"stimoli/02.subtle/JM1_Sadness.mp4","sad","subtle","maschio",7,10,1646,926,19,NA,NA,NA,NA,NA,NA,NA,NA,NA,NA,NA,NA,NA,NA,NA,NA,0,0,0,0,NA,NA,NA,NA,NA,NA,NA,NA,0,23,23,18,NA,NA,0.149428499978967,692.910594300018,0.156703199958429,0.000692599976900965,0.000692599976900965,703.262222699996,703.262222699996,0.00979290000395849,-108,-76,1,0,0,4.86619369999971,"'click_1'",1.53000000864267e-05,708.12916240003,0.00897630001418293,NA,0.00242189998971298,0.00242189998971298,708.631870199984,708.631870199984,708.631870199984,0.0116634000441991,-129,-27,1,0,0,3.70025789999636,"'click_2'",1.4499993994832e-05,0.00900180003372952,"",NA,13,1,"control",25,"f",18,1,"ale_ila","2024-04-22_17h08.40.556","CPO_EEG","2022.2.1",99.8271991041581,NA
"stimoli/01.full/F03-Disgust-Face Forward.mp4","disgusted","full","femmina",2,6,720,576,38,NA,NA,NA,NA,NA,NA,NA,NA,NA,NA,NA,NA,NA,NA,NA,NA,0,0,0,0,NA,NA,NA,NA,NA,NA,NA,NA,0,24,24,37,NA,NA,0.150234600005206,713.981264900009,0.157569000031799,0.000702799996361136,0.000702799996361136,719.938462299993,719.938462299993,0.00976360001368448,-72,122,1,0,0,2.14127729996108,"'click_1'",1.4499993994832e-05,722.080402299995,0.00890620000427589,NA,0.00271859997883439,0.00271859997883439,722.583461400005,722.583461400005,722.583461400005,0.0119804000132717,-36,139,1,0,0,1.10560139996232,"'click_2'",1.48999970406294e-05,0.00873180001508445,"",NA,13,1,"control",25,"f",18,1,"ale_ila","2024-04-22_17h08.40.556","CPO_EEG","2022.2.1",99.8271991041581,NA
"stimoli/01.full/M02-Disgust-Face Forward.mp4","disgusted","full","maschio",3,6,720,576,39,NA,NA,NA,NA,NA,NA,NA,NA,NA,NA,NA,NA,NA,NA,NA,NA,0,0,0,0,NA,NA,NA,NA,NA,NA,NA,NA,0,25,25,38,NA,NA,0.14300490001915,725.330959799991,0.150322700035758,0.000773799954913557,0.000773799954913557,731.284087800013,731.284087800013,0.00971969997044653,-118,84,1,0,0,1.94034010003088,"'click_1'",1.46999955177307e-05,733.225065300008,0.00884080003015697,NA,0.00248570000985637,0.00248570000985637,733.728157300036,733.728157300036,733.728157300036,0.0119338000076823,-105,102,1,0,0,1.78928020002786,"'click_2'",1.37999886646867e-05,0.00895479996688664,"",NA,13,1,"control",25,"f",18,1,"ale_ila","2024-04-22_17h08.40.556","CPO_EEG","2022.2.1",99.8271991041581,NA
"stimoli/02.subtle/JF1_Disgust.mp4","disgusted","subtle","femmina",5,10,1646,926,9,NA,NA,NA,NA,NA,NA,NA,NA,NA,NA,NA,NA,NA,NA,NA,NA,0,0,0,0,NA,NA,NA,NA,NA,NA,NA,NA,0,26,26,8,NA,NA,0.146905499976128,737.162974200037,0.154159799974877,0.000866399961523712,0.000866399961523712,747.91879830003,747.91879830003,0.00978619995294139,-190,121,1,0,0,1.31640680000419,"'click_1'",1.55000016093254e-05,749.235979799996,0.00879499997245148,NA,0.00204900000244379,0.00204900000244379,749.738485400041,749.738485400041,749.738485400041,0.0112969999900088,-185,118,1,0,0,5.56146250001621,"'click_2'",3.01999971270561e-05,0.00875480001559481,"",NA,13,1,"control",25,"f",18,1,"ale_ila","2024-04-22_17h08.40.556","CPO_EEG","2022.2.1",99.8271991041581,NA
"stimoli/01.full/F03-Surprise-Face Forward.mp4","surprised","full","femmina",2,6,720,576,50,NA,NA,NA,NA,NA,NA,NA,NA,NA,NA,NA,NA,NA,NA,NA,NA,0,0,0,0,NA,NA,NA,NA,NA,NA,NA,NA,0,27,27,49,NA,NA,0.143295400019269,756.942361499998,0.150792300002649,0.000491000013425946,0.000491000013425946,762.898427699984,762.898427699984,0.00978690001647919,48,-197,1,0,0,4.68548250000458,"'click_1'",1.53000000864267e-05,767.584236600029,0.00878249999368563,NA,0.00238619995070621,0.00238619995070621,768.087266499992,768.087266499992,768.087266499992,0.0118205999606289,78,-115,1,0,0,1.49843950005015,"'click_2'",1.39999901875854e-05,0.00886629999149591,"",NA,13,1,"control",25,"f",18,1,"ale_ila","2024-04-22_17h08.40.556","CPO_EEG","2022.2.1",99.8271991041581,NA
"stimoli/02.subtle/JM2_Surprise.mp4","surprised","subtle","maschio",8,10,1646,926,24,NA,NA,NA,NA,NA,NA,NA,NA,NA,NA,NA,NA,NA,NA,NA,NA,0,0,0,0,NA,NA,NA,NA,NA,NA,NA,NA,0,28,28,23,NA,NA,0.150743999984115,771.234968100034,0.157930699991994,0.000733799999579787,0.000733799999579787,782.149565300031,782.149565300031,0.00991780002368614,42,-138,1,0,0,1.45767259999411,"'click_1'",1.43999932333827e-05,783.607713900041,0.0088980000000447,NA,0.00232580001465976,0.00232580001465976,784.110403100029,784.110403100029,784.110403100029,0.0115810999996029,107,-147,1,0,0,2.82574199995724,"'click_2'",1.4199991710484e-05,0.00873589998809621,"",NA,13,1,"control",25,"f",18,1,"ale_ila","2024-04-22_17h08.40.556","CPO_EEG","2022.2.1",99.8271991041581,NA
"stimoli/02.subtle/JF1_Fear.mp4","fear","subtle","femmina",5,10,1646,926,1,NA,NA,NA,NA,NA,NA,NA,NA,NA,NA,NA,NA,NA,NA,NA,NA,0,0,0,0,NA,NA,NA,NA,NA,NA,NA,NA,0,29,29,0,NA,NA,0.145033799984958,788.579984700016,0.152301299967803,0.000870399991981685,0.000870399991981685,799.33767149999,799.33767149999,0.00970599998254329,-196,-45,1,0,0,2.47326419997262,"'click_1'",1.50999985635281e-05,801.811733599985,0.00876499997684732,NA,0.00254419998964295,0.00254419998964295,802.314686700003,802.314686700003,802.314686700003,0.0117413999978453,-88,-122,1,0,0,2.34288549999474,"'click_2'",1.43999932333827e-05,0.00855709996540099,"",NA,13,1,"control",25,"f",18,1,"ale_ila","2024-04-22_17h08.40.556","CPO_EEG","2022.2.1",99.8271991041581,NA
"stimoli/02.subtle/JM2_Disgust.mp4","disgusted","subtle","maschio",8,10,1646,926,12,NA,NA,NA,NA,NA,NA,NA,NA,NA,NA,NA,NA,NA,NA,NA,NA,0,0,0,0,NA,NA,NA,NA,NA,NA,NA,NA,0,30,30,11,NA,NA,0.149360899988096,806.305836700019,0.156572300009429,0.000705700018443167,0.000705700018443167,816.857888900035,816.857888900035,0.00970180000877008,-121,83,1,0,0,2.15123930003028,"'click_1'",1.46000529639423e-05,819.009702400013,0.00872370001161471,NA,0.00219960004324093,0.00219960004324093,819.512493200018,819.512493200018,819.512493200018,0.0115425999974832,-82,124,1,0,0,2.28232709999429,"'click_2'",1.4199991710484e-05,0.00892140000360087,"",NA,13,1,"control",25,"f",18,1,"ale_ila","2024-04-22_17h08.40.556","CPO_EEG","2022.2.1",99.8271991041581,NA
"stimoli/02.subtle/JF2_Fear.mp4","fear","subtle","femmina",6,10,1646,926,2,NA,NA,NA,NA,NA,NA,NA,NA,NA,NA,NA,NA,NA,NA,NA,NA,0,0,0,0,NA,NA,NA,NA,NA,NA,NA,NA,0,31,31,1,NA,NA,0.153292700008024,823.446910400002,0.160695599974133,0.000682800018694252,0.000682800018694252,833.795084199985,833.795084199985,0.00977440003771335,31,-145,1,0,0,3.29812270001275,"'click_1'",2.0099978428334e-05,837.093725199986,0.00870189996203408,NA,0.00219379999907687,0.00219379999907687,837.596495500009,837.596495500009,837.596495500009,0.0114599000080489,-87,-116,1,0,0,1.13588319998235,"'click_2'",1.39999901875854e-05,0.00869069999316707,"",NA,13,1,"control",25,"f",18,1,"ale_ila","2024-04-22_17h08.40.556","CPO_EEG","2022.2.1",99.8271991041581,NA
"stimoli/01.full/F01-Neutral-Face Forward.mp4","neutral","full","femmina",1,6,720,576,53,NA,NA,NA,NA,NA,NA,NA,NA,NA,NA,NA,NA,NA,NA,NA,NA,0,0,0,0,NA,NA,NA,NA,NA,NA,NA,NA,0,32,32,52,NA,NA,0.147994600003585,840.379351100011,0.1553486000048,0.000712600012775511,0.000712600012775511,846.327532600029,846.327532600029,0.00983409996842965,-22,94,1,0,0,2.43228730000556,"'click_1'",1.4199991710484e-05,848.760450300004,0.00900910003110766,NA,0.00246400001924485,0.00246400001924485,849.263234100014,849.263234100014,849.263234100014,0.0117979000206105,-56,78,1,0,0,3.76045270002214,"'click_2'",1.43000506795943e-05,0.00894570001401007,"",NA,13,1,"control",25,"f",18,1,"ale_ila","2024-04-22_17h08.40.556","CPO_EEG","2022.2.1",99.8271991041581,NA
"stimoli/02.subtle/JF2_Anger.mp4","angry","subtle","femmina",6,9,1646,926,6,NA,NA,NA,NA,NA,NA,NA,NA,NA,NA,NA,NA,NA,NA,NA,NA,0,0,0,0,NA,NA,NA,NA,NA,NA,NA,NA,0,33,33,5,NA,NA,0.153262800013181,854.675599400012,0.16048600000795,0.000798900029622018,0.000798900029622018,864.10867300001,864.10867300001,0.00967880000825971,-13,100,1,0,0,1.70856050000293,"'click_1'",1.45999947562814e-05,865.818033499992,0.00894540001172572,NA,0.00236240000231192,0.00236240000231192,866.320783700037,866.320783700037,866.320783700037,0.0116955999983475,-82,50,1,0,0,2.96663909999188,"'click_2'",1.4199991710484e-05,0.00880849995883182,"",NA,13,1,"control",25,"f",18,1,"ale_ila","2024-04-22_17h08.40.556","CPO_EEG","2022.2.1",99.8271991041581,NA
"stimoli/02.subtle/JM2_Fear.mp4","fear","subtle","maschio",8,10,1646,926,4,NA,NA,NA,NA,NA,NA,NA,NA,NA,NA,NA,NA,NA,NA,NA,NA,0,0,0,0,NA,NA,NA,NA,NA,NA,NA,NA,0,34,34,3,NA,NA,0.150852999999188,870.936894399987,0.15800469997339,0.000698399962857366,0.000698399962857366,881.487180800003,881.487180800003,0.00972209998872131,40,-136,1,0,0,3.44850850000512,"'click_1'",1.49999978020787e-05,884.936290699989,0.00886830000672489,NA,0.0024212000425905,0.0024212000425905,885.439144000004,885.439144000004,885.439144000004,0.0117175999912433,113,-14,1,0,0,1.41852030000882,"'click_2'",1.3899989426136e-05,0.00773459998890758,"",NA,13,1,"control",25,"f",18,1,"ale_ila","2024-04-22_17h08.40.556","CPO_EEG","2022.2.1",99.8271991041581,NA
"stimoli/01.full/M02-Fear-Face Forward.mp4","fear","full","maschio",3,6,720,576,31,NA,NA,NA,NA,NA,NA,NA,NA,NA,NA,NA,NA,NA,NA,NA,NA,0,0,0,0,NA,NA,NA,NA,NA,NA,NA,NA,0,35,35,30,NA,NA,0.142365499981679,888.49905340001,0.149846799962688,0.000789399957284331,0.000789399957284331,894.451741600002,894.451741600002,0.00988799997139722,28,-139,1,0,0,1.94057139998768,"'click_1'",1.4800054486841e-05,896.392853900034,0.00888340000528842,NA,0.00218480004696175,0.00218480004696175,896.895445300033,896.895445300033,896.895445300033,0.0114804000477307,-71,-113,1,0,0,1.72936900000786,"'click_2'",1.40999909490347e-05,0.00887149997288361,"",NA,13,1,"control",25,"f",18,1,"ale_ila","2024-04-22_17h08.40.556","CPO_EEG","2022.2.1",99.8271991041581,NA
"stimoli/01.full/F01-Disgust-Face Forward.mp4","disgusted","full","femmina",1,6,720,576,37,NA,NA,NA,NA,NA,NA,NA,NA,NA,NA,NA,NA,NA,NA,NA,NA,0,0,0,0,NA,NA,NA,NA,NA,NA,NA,NA,0,36,36,36,NA,NA,0.145860899996478,900.269436800038,0.153130999999121,0.000889100017957389,0.000889100017957389,906.220563700015,906.220563700015,0.00969330000225455,-165,102,1,0,0,1.83942709997064,"'click_1'",1.57000031322241e-05,908.060897600022,0.00888829998439178,NA,0.00247440004022792,0.00247440004022792,908.563695600023,908.563695600023,908.563695600023,0.0117332999943756,-164,104,1,0,0,2.95596250001108,"'click_2'",1.4199991710484e-05,0.00895109999692068,"",NA,13,1,"control",25,"f",18,1,"ale_ila","2024-04-22_17h08.40.556","CPO_EEG","2022.2.1",99.8271991041581,NA
"stimoli/02.subtle/JM2_Neutral.mp4","neutral","subtle","maschio",8,10,1646,926,28,NA,NA,NA,NA,NA,NA,NA,NA,NA,NA,NA,NA,NA,NA,NA,NA,0,0,0,0,NA,NA,NA,NA,NA,NA,NA,NA,0,37,37,27,NA,NA,0.144316899997648,913.162853799993,0.151682299969252,0.000710099993739277,0.000710099993739277,924.071548300039,924.071548300039,0.00981540000066161,90,16,1,0,0,2.69459769997047,"'click_1'",1.77000183612108e-05,926.766689300013,0.00880190002499148,NA,0.0023710000095889,0.0023710000095889,927.269837900007,927.269837900007,927.269837900007,0.0120637000072747,89,16,1,0,0,2.49313089996576,"'click_2'",1.4199991710484e-05,0.00911319995066151,"",NA,13,1,"control",25,"f",18,1,"ale_ila","2024-04-22_17h08.40.556","CPO_EEG","2022.2.1",99.8271991041581,NA
"stimoli/01.full/M03-Anger-Face Forward.mp4","angry","full","maschio",4,6,720,576,36,NA,NA,NA,NA,NA,NA,NA,NA,NA,NA,NA,NA,NA,NA,NA,NA,0,0,0,0,NA,NA,NA,NA,NA,NA,NA,NA,0,38,38,35,NA,NA,0.146221799950581,931.407767700031,0.153604399994947,0.000720800017006695,0.000720800017006695,937.358389400004,937.358389400004,0.00977200001943856,-18,148,1,0,0,2.26208809996024,"'click_1'",1.54000008478761e-05,939.621238699998,0.00901859998703003,NA,0.0024756999919191,0.0024756999919191,940.12405079999,940.12405079999,940.12405079999,0.011821299965959,-21,146,1,0,0,2.06122119998327,"'click_2'",1.3899989426136e-05,0.00909269996918738,"",NA,13,1,"control",25,"f",18,1,"ale_ila","2024-04-22_17h08.40.556","CPO_EEG","2022.2.1",99.8271991041581,NA
"stimoli/01.full/M02-Neutral-Face Forward.mp4","neutral","full","maschio",3,6,720,576,55,NA,NA,NA,NA,NA,NA,NA,NA,NA,NA,NA,NA,NA,NA,NA,NA,0,0,0,0,NA,NA,NA,NA,NA,NA,NA,NA,0,39,39,54,NA,NA,0.145590999978594,943.829771400022,0.153074699977878,0.000805799965746701,0.000805799965746701,949.781020499999,949.781020499999,0.00985339999897406,2,46,1,0,0,3.89131909998832,"'click_1'",1.49999978020787e-05,953.672932300018,0.00882920000003651,NA,0.00226119998842478,0.00226119998842478,954.175719599996,954.175719599996,954.175719599996,0.0116317999782041,-6,-3,1,0,0,1.53810920001706,"'click_2'",1.79999624378979e-05,0.00880969996796921,"",NA,13,1,"control",25,"f",18,1,"ale_ila","2024-04-22_17h08.40.556","CPO_EEG","2022.2.1",99.8271991041581,NA
"stimoli/02.subtle/JF2_Happiness.mp4","happy","subtle","femmina",6,9,1646,926,14,NA,NA,NA,NA,NA,NA,NA,NA,NA,NA,NA,NA,NA,NA,NA,NA,0,0,0,0,NA,NA,NA,NA,NA,NA,NA,NA,0,40,40,13,NA,NA,0.146893899946008,957.359852100024,0.154680699983146,0.000686200044583529,0.000686200044583529,966.788472499989,966.788472499989,0.00978210003813729,164,30,1,0,0,4.23316870001145,"'click_1'",1.46999955177307e-05,971.022227799986,0.00884870003210381,NA,0.00220420002005994,0.00220420002005994,971.524884600018,971.524884600018,971.524884600018,0.011517700040713,112,79,1,0,0,1.26675350003643,"'click_2'",2.18999921344221e-05,0.0087941000238061,"",NA,13,1,"control",25,"f",18,1,"ale_ila","2024-04-22_17h08.40.556","CPO_EEG","2022.2.1",99.8271991041581,NA
"stimoli/01.full/F01-Fear-Face Forward.mp4","fear","full","femmina",1,6,720,576,29,NA,NA,NA,NA,NA,NA,NA,NA,NA,NA,NA,NA,NA,NA,NA,NA,0,0,0,0,NA,NA,NA,NA,NA,NA,NA,NA,0,41,41,28,NA,NA,0.149201799998991,974.439602099999,0.1564843999804,0.000692299974616617,0.000692299974616617,980.396408700035,980.396408700035,0.00976340001216158,-77,-123,1,0,0,1.38738679996459,"'click_1'",1.49999978020787e-05,981.784273100027,0.00874230003682896,NA,0.00224970001727343,0.00224970001727343,982.287111000041,982.287111000041,982.287111000041,0.0115768000250682,25,-139,1,0,0,1.3871635000105,"'click_2'",1.45999947562814e-05,0.00896770000690594,"",NA,13,1,"control",25,"f",18,1,"ale_ila","2024-04-22_17h08.40.556","CPO_EEG","2022.2.1",99.8271991041581,NA
"stimoli/01.full/M03-Sadness-Face Forward.mp4","sad","full","maschio",4,6,720,576,48,NA,NA,NA,NA,NA,NA,NA,NA,NA,NA,NA,NA,NA,NA,NA,NA,0,0,0,0,NA,NA,NA,NA,NA,NA,NA,NA,0,42,42,47,NA,NA,0.142408000014257,985.315529000014,0.149742100038566,0.000709799991454929,0.000709799991454929,991.269593400008,991.269593400008,0.00974549999227747,-15,-99,1,0,0,5.91254460002529,"'click_1'",1.4499993994832e-05,997.182551000034,0.00868590001482517,NA,0.00248710002051666,0.00248710002051666,997.68549080001,997.68549080001,997.68549080001,0.0116293000173755,-99,-23,1,0,0,1.49791420000838,"'click_2'",1.4199991710484e-05,0.00886360002914444,"",NA,13,1,"control",25,"f",18,1,"ale_ila","2024-04-22_17h08.40.556","CPO_EEG","2022.2.1",99.8271991041581,NA
"stimoli/01.full/M02-Joy-Face Forward.mp4","happy","full","maschio",3,6,720,576,43,NA,NA,NA,NA,NA,NA,NA,NA,NA,NA,NA,NA,NA,NA,NA,NA,0,0,0,0,NA,NA,NA,NA,NA,NA,NA,NA,0,43,43,42,NA,NA,0.149636699992698,1000.83218989999,0.157143899996299,0.000818700005766004,0.000818700005766004,1006.78881430003,1006.78881430003,0.00969709997298196,55,79,1,0,0,3.28741910000099,"'click_1'",1.58000038936734e-05,1010.07710290002,0.0088485999731347,NA,0.0025010000099428,0.0025010000099428,1010.58006320003,1010.58006320003,1010.58006320003,0.0118259000009857,56,81,1,0,0,2.16145399998641,"'click_2'",1.4199991710484e-05,0.0088172999676317,"",NA,13,1,"control",25,"f",18,1,"ale_ila","2024-04-22_17h08.40.556","CPO_EEG","2022.2.1",99.8271991041581,NA
"stimoli/01.full/M02-Sadness-Face Forward.mp4","sad","full","maschio",3,6,720,576,47,NA,NA,NA,NA,NA,NA,NA,NA,NA,NA,NA,NA,NA,NA,NA,NA,0,0,0,0,NA,NA,NA,NA,NA,NA,NA,NA,0,44,44,46,NA,NA,0.142079800018109,1014.38223610003,0.149083499971312,0.000692900037392974,0.000692900037392974,1019.97572799999,1019.97572799999,0.00984750001225621,-88,-137,1,0,0,2.28247420000844,"'click_1'",1.50999985635281e-05,1022.2583853,0.00855590001447126,NA,0.00228539999807253,0.00228539999807253,1022.76135480002,1022.76135480002,1022.76135480002,0.0115695000276901,-73,-124,1,0,0,2.42381459998433,"'click_2'",1.83999654836953e-05,0.00820559996645898,"",NA,13,1,"control",25,"f",18,1,"ale_ila","2024-04-22_17h08.40.556","CPO_EEG","2022.2.1",99.8271991041581,NA
"stimoli/01.full/M03-Disgust-Face Forward.mp4","disgusted","full","maschio",4,6,720,576,40,NA,NA,NA,NA,NA,NA,NA,NA,NA,NA,NA,NA,NA,NA,NA,NA,0,0,0,0,NA,NA,NA,NA,NA,NA,NA,NA,0,45,45,39,NA,NA,0.140355999988969,1026.8244628,0.147768199967686,0.000686599989421666,0.000686599989421666,1032.78036430001,1032.78036430001,0.00974639999913052,-36,195,1,0,0,1.62849779997487,"'click_1'",1.45999947562814e-05,1034.40944960003,0.00879340001847595,NA,0.00236729998141527,0.00236729998141527,1034.91211189999,1034.91211189999,1034.91211189999,0.0114657999947667,-2,2,1,0,0,2.11143059999449,"'click_2'",1.4199991710484e-05,0.00890339998295531,"",NA,13,1,"control",25,"f",18,1,"ale_ila","2024-04-22_17h08.40.556","CPO_EEG","2022.2.1",99.8271991041581,NA
"stimoli/02.subtle/JM1_Disgust.mp4","disgusted","subtle","maschio",7,10,1646,926,11,NA,NA,NA,NA,NA,NA,NA,NA,NA,NA,NA,NA,NA,NA,NA,NA,0,0,0,0,NA,NA,NA,NA,NA,NA,NA,NA,0,46,46,10,NA,NA,0.146748700004537,1038.66941229999,0.154217800009064,0.000666000007186085,0.000666000007186085,1049.02422580001,1049.02422580001,0.00972689996706322,-156,110,1,0,0,1.19635860004928,"'click_1'",1.46000529639423e-05,1050.22119210003,0.00884770002448931,NA,0.00234360003378242,0.00234360003378242,1050.72399910004,1050.72399910004,1050.72399910004,0.0116964000044391,0,1,1,0,0,0.572594400029629,"'click_2'",1.4199991710484e-05,0.00897359999362379,"",NA,13,1,"control",25,"f",18,1,"ale_ila","2024-04-22_17h08.40.556","CPO_EEG","2022.2.1",99.8271991041581,NA
"stimoli/02.subtle/JF1_Neutral.mp4","neutral","subtle","femmina",5,10,1646,926,25,NA,NA,NA,NA,NA,NA,NA,NA,NA,NA,NA,NA,NA,NA,NA,NA,0,0,0,0,NA,NA,NA,NA,NA,NA,NA,NA,0,47,47,24,NA,NA,0.146450200001709,1052.94191920001,0.153887199994642,0.000851599965244532,0.000851599965244532,1063.69846380001,1063.69846380001,0.0097673999844119,28,96,1,0,0,3.40807819995098,"'click_1'",1.48999970406294e-05,1067.10733959998,0.00890030001755804,NA,0.00251010002102703,0.00251010002102703,1067.6101171,1067.6101171,1067.6101171,0.0117140000220388,36,93,1,0,0,1.1657062000013,"'click_2'",1.43999932333827e-05,0.00903099996503443,"",NA,13,1,"control",25,"f",18,1,"ale_ila","2024-04-22_17h08.40.556","CPO_EEG","2022.2.1",99.8271991041581,NA
"stimoli/02.subtle/JF1_Sadness.mp4","sad","subtle","femmina",5,10,1646,926,17,NA,NA,NA,NA,NA,NA,NA,NA,NA,NA,NA,NA,NA,NA,NA,NA,0,0,0,0,NA,NA,NA,NA,NA,NA,NA,NA,0,48,48,16,NA,NA,0.14735440001823,1070.42206720001,0.154608800017741,0.000708999985363334,0.000708999985363334,1081.17623640003,1081.17623640003,0.00972460000775754,-27,-140,1,0,0,1.16597349999938,"'click_1'",1.50999985635281e-05,1082.342794,0.00884080003015697,NA,0.00254840002162382,0.00254840002162382,1082.84578040004,1082.84578040004,1082.84578040004,0.0118192000081763,-18,-147,1,0,0,1.53831680002622,"'click_2'",1.40999909490347e-05,0.00880379998125136,"",NA,13,1,"control",25,"f",18,1,"ale_ila","2024-04-22_17h08.40.556","CPO_EEG","2022.2.1",99.8271991041581,NA
"stimoli/01.full/M03-Joy-Face Forward.mp4","happy","full","maschio",4,6,720,576,44,NA,NA,NA,NA,NA,NA,NA,NA,NA,NA,NA,NA,NA,NA,NA,NA,0,0,0,0,NA,NA,NA,NA,NA,NA,NA,NA,0,49,49,43,NA,NA,0.148167799983639,1086.03095769999,0.155346099985763,0.00084299995796755,0.00084299995796755,1091.9799646,1091.9799646,0.00979529996402562,111,68,1,0,0,3.1464496999979,"'click_1'",1.51999993249774e-05,1095.12717669999,0.00896260002627969,NA,0.00247340003261343,0.00247340003261343,1095.63008770003,1095.63008770003,1095.63008770003,0.011882400023751,120,67,1,0,0,2.03070549998665,"'click_2'",1.59000046551228e-05,0.00893109996104613,"",NA,13,1,"control",25,"f",18,1,"ale_ila","2024-04-22_17h08.40.556","CPO_EEG","2022.2.1",99.8271991041581,NA
"stimoli/01.full/F01-Surprise-Face Forward.mp4","surprised","full","femmina",1,6,720,576,49,NA,NA,NA,NA,NA,NA,NA,NA,NA,NA,NA,NA,NA,NA,NA,NA,0,0,0,0,NA,NA,NA,NA,NA,NA,NA,NA,0,50,50,48,NA,NA,0.141896399960387,1099.30147499999,0.149220399965998,0.000705999962519854,0.000705999962519854,1105.2545411,1105.2545411,0.00980519998120144,18,-204,1,0,0,1.30672459997004,"'click_1'",1.4199991710484e-05,1106.5620719,0.00908589997561648,NA,0.00266320002265275,0.00266320002265275,1107.06487120001,1107.06487120001,1107.06487120001,0.0119253000011668,23,-197,1,0,0,2.29217239998979,"'click_2'",1.46999955177307e-05,0.00889219995588064,"",NA,13,1,"control",25,"f",18,1,"ale_ila","2024-04-22_17h08.40.556","CPO_EEG","2022.2.1",99.8271991041581,NA
"stimoli/02.subtle/JM1_Fear.mp4","fear","subtle","maschio",7,10,1646,926,3,NA,NA,NA,NA,NA,NA,NA,NA,NA,NA,NA,NA,NA,NA,NA,NA,0,0,0,0,NA,NA,NA,NA,NA,NA,NA,NA,0,51,51,2,NA,NA,0.143770699971355,1110.99959720002,0.151043199992273,0.000679599994327873,0.000679599994327873,1121.35554920003,1121.35554920003,0.00983210001140833,28,-156,1,0,0,1.4374585999758,"'click_1'",2.069998299703e-05,1122.79367700004,0.00905310001689941,NA,0.00214659998891875,0.00214659998891875,1123.29616680002,1123.29616680002,1123.29616680002,0.0115329999825917,-85,-115,1,0,0,1.40737289999379,"'click_2'",1.42999924719334e-05,0.00880169996526092,"",NA,13,1,"control",25,"f",18,1,"ale_ila","2024-04-22_17h08.40.556","CPO_EEG","2022.2.1",99.8271991041581,NA
"stimoli/02.subtle/JM2_Sadness.mp4","sad","subtle","maschio",8,10,1646,926,20,NA,NA,NA,NA,NA,NA,NA,NA,NA,NA,NA,NA,NA,NA,NA,NA,0,0,0,0,NA,NA,NA,NA,NA,NA,NA,NA,0,52,52,19,NA,NA,0.145784399996046,1126.34806590003,0.153109100006986,0.000680900004226714,0.000680900004226714,1136.90415160003,1136.90415160003,0.00979500001994893,106,15,1,0,0,2.12071940000169,"'click_1'",1.48999970406294e-05,1139.02558399999,0.00905609998153523,NA,0.00249019998591393,0.00249019998591393,1139.52817410004,1139.52817410004,1139.52817410004,0.011657600000035,-9,-99,1,0,0,2.39296739996644,"'click_2'",1.42999924719334e-05,0.00880499999038875,"",NA,13,1,"control",25,"f",18,1,"ale_ila","2024-04-22_17h08.40.556","CPO_EEG","2022.2.1",99.8271991041581,NA
"stimoli/01.full/F03-Anger-Face Forward.mp4","angry","full","femmina",2,6,720,576,34,NA,NA,NA,NA,NA,NA,NA,NA,NA,NA,NA,NA,NA,NA,NA,NA,0,0,0,0,NA,NA,NA,NA,NA,NA,NA,NA,0,53,53,33,NA,NA,0.149716899963096,1143.56941120001,0.156604699965101,0.000708399980794638,0.000708399980794638,1149.52636970003,1149.52636970003,0.00977649999549612,-17,135,1,0,0,2.99576770002022,"'click_1'",1.49999978020787e-05,1152.52292780002,0.00905849999981001,NA,0.00273139995988458,0.00273139995988458,1153.02583560004,1153.02583560004,1153.02583560004,0.0119826999725774,-78,121,1,0,0,2.19147249998059,"'click_2'",1.51999993249774e-05,0.00882859999546781,"",NA,13,1,"control",25,"f",18,1,"ale_ila","2024-04-22_17h08.40.556","CPO_EEG","2022.2.1",99.8271991041581,NA
"stimoli/01.full/F01-Anger-Face Forward.mp4","angry","full","femmina",1,6,720,576,33,NA,NA,NA,NA,NA,NA,NA,NA,NA,NA,NA,NA,NA,NA,NA,NA,0,0,0,0,NA,NA,NA,NA,NA,NA,NA,NA,0,54,54,32,NA,NA,0.148385199951008,1156.86484590004,0.155976799956989,0.000678500044159591,0.000678500044159591,1162.81357240002,1162.81357240002,0.00974980002501979,-115,77,1,0,0,3.55941940000048,"'click_1'",1.49999978020787e-05,1166.37364360003,0.00890529999742284,NA,0.0023516999790445,0.0023516999790445,1166.87633370003,1166.87633370003,1166.87633370003,0.0116125000058673,-28,135,1,0,0,0.945080299978144,"'click_2'",1.45999947562814e-05,0.00900759996147826,"",NA,13,1,"control",25,"f",18,1,"ale_ila","2024-04-22_17h08.40.556","CPO_EEG","2022.2.1",99.8271991041581,NA
"stimoli/01.full/F01-Sadness-Face Forward.mp4","sad","full","femmina",1,6,720,576,45,NA,NA,NA,NA,NA,NA,NA,NA,NA,NA,NA,NA,NA,NA,NA,NA,0,0,0,0,NA,NA,NA,NA,NA,NA,NA,NA,0,55,55,44,NA,NA,0.149202999949921,1169.46956390003,0.156660899985582,0.000709099986124784,0.000709099986124784,1175.4173798,1175.4173798,0.0098423000308685,-11,-143,1,0,0,2.1717502999818,"'click_1'",1.56000023707747e-05,1177.58962400001,0.0088415999780409,NA,0.00225550000322983,0.00225550000322983,1178.09237480001,1178.09237480001,1178.09237480001,0.0116377999656834,-14,-137,1,0,0,1.88044370000716,"'click_2'",1.49999978020787e-05,0.00884700001915917,"",NA,13,1,"control",25,"f",18,1,"ale_ila","2024-04-22_17h08.40.556","CPO_EEG","2022.2.1",99.8271991041581,NA
"","","","",NA,NA,NA,NA,NA,NA,NA,NA,NA,NA,NA,NA,NA,NA,NA,NA,NA,NA,NA,NA,NA,0,0,0,0,NA,NA,NA,NA,NA,NA,NA,NA,NA,NA,NA,NA,NA,NA,NA,NA,NA,NA,NA,NA,NA,NA,NA,NA,NA,NA,NA,NA,"",NA,NA,NA,NA,NA,NA,NA,NA,NA,NA,NA,NA,NA,NA,NA,NA,"",NA,NA,"",NA,13,1,"control",25,"f",18,1,"ale_ila","2024-04-22_17h08.40.556","CPO_EEG","2022.2.1",99.8271991041581,NA
"","","","",NA,NA,NA,NA,NA,NA,NA,NA,NA,NA,NA,NA,NA,NA,NA,NA,NA,NA,NA,NA,NA,1,0,1,0,NA,NA,NA,NA,0,0,0,0,NA,NA,NA,NA,NA,NA,NA,NA,NA,NA,NA,NA,NA,NA,NA,NA,NA,NA,NA,NA,"",NA,NA,NA,NA,NA,NA,NA,NA,NA,NA,NA,NA,NA,NA,NA,NA,"",NA,NA,"",NA,13,1,"control",25,"f",18,1,"ale_ila","2024-04-22_17h08.40.556","CPO_EEG","2022.2.1",99.8271991041581,NA
"stimoli/01.full/M03-Neutral-Face Forward.mp4","neutral","full","maschio",4,6,720,576,56,NA,NA,NA,NA,NA,NA,NA,NA,NA,NA,NA,NA,NA,NA,NA,NA,1,0,1,0,NA,NA,NA,NA,NA,NA,NA,NA,0,0,0,55,NA,NA,0.13281320000533,1192.67994609999,0.140439600043464,0.00070090004010126,0.00070090004010126,1198.6295719,1198.6295719,0.00976380001520738,0,0,1,0,0,0.572663900034968,"'click_1'",1.48999970406294e-05,1199.20281380002,0.00849559996277094,NA,0.00171139999292791,0.00171139999292791,1199.70526750002,1199.70526750002,1199.70526750002,0.0109701000037603,0,0,1,0,0,0.954880100034643,"'click_2'",1.4499993994832e-05,0.00862749997759238,"",NA,13,1,"control",25,"f",18,1,"ale_ila","2024-04-22_17h08.40.556","CPO_EEG","2022.2.1",99.8271991041581,NA
"stimoli/02.subtle/JF1_Fear.mp4","fear","subtle","femmina",5,10,1646,926,1,NA,NA,NA,NA,NA,NA,NA,NA,NA,NA,NA,NA,NA,NA,NA,NA,1,0,1,0,NA,NA,NA,NA,NA,NA,NA,NA,0,1,1,0,NA,NA,0.139327599958051,1202.29863939999,0.14662319998024,0.000595699995756149,0.000595699995756149,1213.05045059999,1213.05045059999,0.00982159998966381,-84,-113,1,0,0,1.99040790001163,"'click_1'",1.51999993249774e-05,1215.0412257,0.00883399997837842,NA,0.00231609999900684,0.00231609999900684,1215.54401190003,1215.54401190003,1215.54401190003,0.011641499993857,117,-83,1,0,0,2.26214250002522,"'click_2'",1.49999978020787e-05,0.00857439998071641,"",NA,13,1,"control",25,"f",18,1,"ale_ila","2024-04-22_17h08.40.556","CPO_EEG","2022.2.1",99.8271991041581,NA
"stimoli/01.full/F03-Fear-Face Forward.mp4","fear","full","femmina",2,6,720,576,30,NA,NA,NA,NA,NA,NA,NA,NA,NA,NA,NA,NA,NA,NA,NA,NA,1,0,1,0,NA,NA,NA,NA,NA,NA,NA,NA,0,2,2,29,NA,NA,0.136172999977134,1219.44128040003,0.143577000009827,0.000836799968965352,0.000836799968965352,1225.39012950001,1225.39012950001,0.00975299999117851,-125,-183,1,0,0,1.5776844000211,"'click_1'",1.51999993249774e-05,1226.96862659999,0.0088300000061281,NA,0.00238000001991168,0.00238000001991168,1227.47157220001,1227.47157220001,1227.47157220001,0.0118023999966681,-125,-184,1,0,0,2.67415830004029,"'click_2'",1.4499993994832e-05,0.00913570000557229,"",NA,13,1,"control",25,"f",18,1,"ale_ila","2024-04-22_17h08.40.556","CPO_EEG","2022.2.1",99.8271991041581,NA
"stimoli/02.subtle/JF2_Sadness.mp4","sad","subtle","femmina",6,8,1646,926,18,NA,NA,NA,NA,NA,NA,NA,NA,NA,NA,NA,NA,NA,NA,NA,NA,1,0,1,0,NA,NA,NA,NA,NA,NA,NA,NA,0,3,3,17,NA,NA,0.141710700001568,1231.78611550003,0.149024199985433,0.000810300000011921,0.000810300000011921,1240.09387370001,1240.09387370001,0.00970519997645169,-154,97,1,0,0,1.77930749999359,"'click_1'",1.54000008478761e-05,1241.87390140002,0.00884660001611337,NA,0.00245510000968352,0.00245510000968352,1242.3766059,1242.3766059,1242.3766059,0.0115614999667741,-11,-149,1,0,0,1.71921419998398,"'click_2'",1.46999955177307e-05,0.00896790000842884,"",NA,13,1,"control",25,"f",18,1,"ale_ila","2024-04-22_17h08.40.556","CPO_EEG","2022.2.1",99.8271991041581,NA
"stimoli/01.full/F03-Sadness-Face Forward.mp4","sad","full","femmina",2,6,720,576,46,NA,NA,NA,NA,NA,NA,NA,NA,NA,NA,NA,NA,NA,NA,NA,NA,1,0,1,0,NA,NA,NA,NA,NA,NA,NA,NA,0,4,4,45,NA,NA,0.135729499976151,1245.73069729999,0.143231699999887,0.000704200007021427,0.000704200007021427,1251.67971400003,1251.67971400003,0.0097669999813661,-41,-210,1,0,0,2.00038010004209,"'click_1'",1.479999627918e-05,1253.68067770003,0.00881249998928979,NA,0.0022035000147298,0.0022035000147298,1254.18345780001,1254.18345780001,1254.18345780001,0.0115988000179641,-40,-188,1,0,0,4.02257089997875,"'click_2'",1.40999909490347e-05,0.0087626000167802,"",NA,13,1,"control",25,"f",18,1,"ale_ila","2024-04-22_17h08.40.556","CPO_EEG","2022.2.1",99.8271991041581,NA
"stimoli/02.subtle/JF2_Happiness.mp4","happy","subtle","femmina",6,9,1646,926,14,NA,NA,NA,NA,NA,NA,NA,NA,NA,NA,NA,NA,NA,NA,NA,NA,1,0,1,0,NA,NA,NA,NA,NA,NA,NA,NA,0,5,5,13,NA,NA,0.140053800016176,1259.8449578,0.147511699993629,0.000689200009219348,0.000689200009219348,1269.27918700001,1269.27918700001,0.00989230000413954,126,70,1,0,0,3.49875410000095,"'click_1'",1.51999993249774e-05,1272.77844560001,0.00890319998143241,NA,0.00247699994361028,0.00247699994361028,1273.28128440003,1273.28128440003,1273.28128440003,0.0117777999839745,148,21,1,0,0,1.29682460002368,"'click_2'",1.42999924719334e-05,0.00877549999859184,"",NA,13,1,"control",25,"f",18,1,"ale_ila","2024-04-22_17h08.40.556","CPO_EEG","2022.2.1",99.8271991041581,NA
"stimoli/01.full/M03-Surprise-Face Forward.mp4","surprised","full","maschio",4,6,720,576,52,NA,NA,NA,NA,NA,NA,NA,NA,NA,NA,NA,NA,NA,NA,NA,NA,1,0,1,0,NA,NA,NA,NA,NA,NA,NA,NA,0,6,6,51,NA,NA,0.139850099978503,1276.21703990002,0.147407999960706,0.00103089999174699,0.00103089999174699,1282.17297369998,1282.17297369998,0.00725099997362122,32,-152,1,0,0,1.82641529996181,"'click_1'",1.46999955177307e-05,1284.00274110003,0.0087422999786213,NA,0.00229699996998534,0.00229699996998534,1284.50545270002,1284.50545270002,1284.50545270002,0.0114539000205696,109,20,1,0,0,4.97697690001223,"'click_2'",1.3899989426136e-05,0.00893419998465106,"",NA,13,1,"control",25,"f",18,1,"ale_ila","2024-04-22_17h08.40.556","CPO_EEG","2022.2.1",99.8271991041581,NA
"stimoli/01.full/M02-Neutral-Face Forward.mp4","neutral","full","maschio",3,6,720,576,55,NA,NA,NA,NA,NA,NA,NA,NA,NA,NA,NA,NA,NA,NA,NA,NA,1,0,1,0,NA,NA,NA,NA,NA,NA,NA,NA,0,7,7,54,NA,NA,0.13593689998379,1291.11729620001,0.143304399971385,0.000829799973871559,0.000829799973871559,1297.06802060001,1297.06802060001,0.00978369999211282,0,0,1,0,0,1.21616760001052,"'click_1'",1.56000023707747e-05,1298.28515870002,0.00907019997248426,NA,0.00220729998545721,0.00220729998545721,1298.78767200001,1298.78767200001,1298.78767200001,0.0115950999897905,0,0,1,0,0,0.381810100050643,"'click_2'",1.42000499181449e-05,0.00890860002255067,"",NA,13,1,"control",25,"f",18,1,"ale_ila","2024-04-22_17h08.40.556","CPO_EEG","2022.2.1",99.8271991041581,NA
"stimoli/02.subtle/JM2_Surprise.mp4","surprised","subtle","maschio",8,10,1646,926,24,NA,NA,NA,NA,NA,NA,NA,NA,NA,NA,NA,NA,NA,NA,NA,NA,1,0,1,0,NA,NA,NA,NA,NA,NA,NA,NA,0,8,8,23,NA,NA,0.137053700047545,1300.8050854,0.144205300020985,0.000661199970636517,0.000661199970636517,1311.72024570004,1311.72024570004,0.00967910001054406,33,-148,1,0,0,1.97014370001853,"'click_1'",1.479999627918e-05,1313.69107569999,0.00890670000808313,NA,0.00239340000553057,0.00239340000553057,1314.19377429999,1314.19377429999,1314.19377429999,0.0116429000045173,80,-120,1,0,0,1.19641670002602,"'click_2'",1.479999627918e-05,0.00884920003591105,"",NA,13,1,"control",25,"f",18,1,"ale_ila","2024-04-22_17h08.40.556","CPO_EEG","2022.2.1",99.8271991041581,NA
"stimoli/02.subtle/JM1_Surprise.mp4","surprised","subtle","maschio",7,10,1646,926,23,NA,NA,NA,NA,NA,NA,NA,NA,NA,NA,NA,NA,NA,NA,NA,NA,1,0,1,0,NA,NA,NA,NA,NA,NA,NA,NA,0,9,9,22,NA,NA,0.136859300022479,1317.0260522,0.144296700018458,0.00072750000981614,0.00072750000981614,1327.37783720001,1327.37783720001,0.00972150004236028,34,-144,1,0,0,1.48755959997652,"'click_1'",1.479999627918e-05,1328.86598559999,0.00880180002423003,NA,0.00241539999842644,0.00241539999842644,1329.36886420002,1329.36886420002,1329.36886420002,0.011676499969326,128,-79,1,0,0,2.30237020005006,"'click_2'",1.46999955177307e-05,0.00880579999648035,"",NA,13,1,"control",25,"f",18,1,"ale_ila","2024-04-22_17h08.40.556","CPO_EEG","2022.2.1",99.8271991041581,NA
"stimoli/02.subtle/JF1_Surprise.mp4","surprised","subtle","femmina",5,10,1646,926,21,NA,NA,NA,NA,NA,NA,NA,NA,NA,NA,NA,NA,NA,NA,NA,NA,1,0,1,0,NA,NA,NA,NA,NA,NA,NA,NA,0,10,10,20,NA,NA,0.147339899966028,1333.31748319999,0.154758499993477,0.000668999971821904,0.000668999971821904,1344.07253410004,1344.07253410004,0.00986439996631816,-129,21,1,0,0,2.08097970002564,"'click_1'",1.479999627918e-05,1346.15395430004,0.00882310001179576,NA,0.00237649999326095,0.00237649999326095,1346.6567081,1346.6567081,1346.6567081,0.0115828000125475,26,-97,1,0,0,1.68913860002067,"'click_2'",1.76000175997615e-05,0.00888679997297004,"",NA,13,1,"control",25,"f",18,1,"ale_ila","2024-04-22_17h08.40.556","CPO_EEG","2022.2.1",99.8271991041581,NA
"stimoli/02.subtle/JM2_Sadness.mp4","sad","subtle","maschio",8,10,1646,926,20,NA,NA,NA,NA,NA,NA,NA,NA,NA,NA,NA,NA,NA,NA,NA,NA,1,0,1,0,NA,NA,NA,NA,NA,NA,NA,NA,0,11,11,19,NA,NA,0.136831199983135,1349.98184309999,0.144132899993565,0.000701699987985194,0.000701699987985194,1360.53621290001,1360.53621290001,0.00980310002341866,0,0,1,0,0,0.522340399969835,"'click_1'",1.49999978020787e-05,1361.05915300001,0.00894659996265545,NA,0.00220379995880648,0.00220379995880648,1361.56179250003,1361.56179250003,1361.56179250003,0.0116179999895394,0,0,1,0,0,0.381968599976972,"'click_2'",1.43000506795943e-05,0.00891319999936968,"",NA,13,1,"control",25,"f",18,1,"ale_ila","2024-04-22_17h08.40.556","CPO_EEG","2022.2.1",99.8271991041581,NA
"stimoli/01.full/F03-Surprise-Face Forward.mp4","surprised","full","femmina",2,6,720,576,50,NA,NA,NA,NA,NA,NA,NA,NA,NA,NA,NA,NA,NA,NA,NA,NA,1,0,1,0,NA,NA,NA,NA,NA,NA,NA,NA,0,12,12,49,NA,NA,0.135457600001246,1363.57794320001,0.142816900042817,0.00068449997343123,0.00068449997343123,1369.5268162,1369.5268162,0.0098534999997355,23,-153,1,0,0,1.45774290000554,"'click_1'",1.53000000864267e-05,1370.98496110004,0.00875699997413903,NA,0.0022962000221014,0.0022962000221014,1371.48784200003,1371.48784200003,1371.48784200003,0.0116663000080734,27,-150,1,0,0,1.18646009999793,"'click_2'",1.53000000864267e-05,0.00859449995914474,"",NA,13,1,"control",25,"f",18,1,"ale_ila","2024-04-22_17h08.40.556","CPO_EEG","2022.2.1",99.8271991041581,NA
"stimoli/02.subtle/JF2_Fear.mp4","fear","subtle","femmina",6,10,1646,926,2,NA,NA,NA,NA,NA,NA,NA,NA,NA,NA,NA,NA,NA,NA,NA,NA,1,0,1,0,NA,NA,NA,NA,NA,NA,NA,NA,0,13,13,1,NA,NA,0.139038499968592,1374.31283730001,0.14697109995177,0.000683600024785846,0.000683600024785846,1384.66181710002,1384.66181710002,0.00982370000565425,-55,-91,1,0,0,2.79567660001339,"'click_1'",1.42999924719334e-05,1387.45811509999,0.00895779998973012,NA,0.00208250002469867,0.00208250002469867,1387.96056800004,1387.96056800004,1387.96056800004,0.0114076000172645,-117,-59,1,0,0,1.13646309997421,"'click_2'",1.42999924719334e-05,0.00809949997346848,"",NA,13,1,"control",25,"f",18,1,"ale_ila","2024-04-22_17h08.40.556","CPO_EEG","2022.2.1",99.8271991041581,NA
"stimoli/02.subtle/JM1_Sadness.mp4","sad","subtle","maschio",7,10,1646,926,19,NA,NA,NA,NA,NA,NA,NA,NA,NA,NA,NA,NA,NA,NA,NA,NA,1,0,1,0,NA,NA,NA,NA,NA,NA,NA,NA,0,14,14,18,NA,NA,0.137449399975594,1390.73327590001,0.144733699969947,0.000681900011841208,0.000681900011841208,1401.08408559998,1401.08408559998,0.00994900002842769,-77,-63,1,0,0,3.19722099998035,"'click_1'",1.58000038936734e-05,1404.28171980003,0.00884900003438815,NA,0.00236300000688061,0.00236300000688061,1404.78447100002,1404.78447100002,1404.78447100002,0.0116459000273608,105,-25,1,0,0,2.47338849998778,"'click_2'",1.43999932333827e-05,0.00886659999378026,"",NA,13,1,"control",25,"f",18,1,"ale_ila","2024-04-22_17h08.40.556","CPO_EEG","2022.2.1",99.8271991041581,NA
"stimoli/01.full/M03-Sadness-Face Forward.mp4","sad","full","maschio",4,6,720,576,48,NA,NA,NA,NA,NA,NA,NA,NA,NA,NA,NA,NA,NA,NA,NA,NA,1,0,1,0,NA,NA,NA,NA,NA,NA,NA,NA,0,15,15,47,NA,NA,0.136172299971804,1408.89286620001,0.143485999957193,0.000717999995686114,0.000717999995686114,1414.8421295,1414.8421295,0.0098602999933064,-18,-95,1,0,0,5.218304500042,"'click_1'",1.89000274986029e-05,1420.0609331,0.00880539999343455,NA,0.00244740000925958,0.00244740000925958,1420.56384610001,1420.56384610001,1420.56384610001,0.0117131000151858,-126,26,1,0,0,1.40755970001919,"'click_2'",1.42999924719334e-05,0.00894279999192804,"",NA,13,1,"control",25,"f",18,1,"ale_ila","2024-04-22_17h08.40.556","CPO_EEG","2022.2.1",99.8271991041581,NA
"stimoli/01.full/F01-Anger-Face Forward.mp4","angry","full","femmina",1,6,720,576,33,NA,NA,NA,NA,NA,NA,NA,NA,NA,NA,NA,NA,NA,NA,NA,NA,1,0,1,0,NA,NA,NA,NA,NA,NA,NA,NA,0,16,16,32,NA,NA,0.137239200004842,1423.607777,0.144911799987312,0.00080159999197349,0.00080159999197349,1429.5557965,1429.5557965,0.00984040001640096,-21,146,1,0,0,2.01060159999179,"'click_1'",1.53000000864267e-05,1431.56708380004,0.00892419996671379,NA,0.0021279999637045,0.0021279999637045,1432.0696241,1432.0696241,1432.0696241,0.0114810999948531,-65,86,1,0,0,1.63940059999004,"'click_2'",1.479999627918e-05,0.00876350002363324,"",NA,13,1,"control",25,"f",18,1,"ale_ila","2024-04-22_17h08.40.556","CPO_EEG","2022.2.1",99.8271991041581,NA
"stimoli/01.full/F01-Disgust-Face Forward.mp4","disgusted","full","femmina",1,6,720,576,37,NA,NA,NA,NA,NA,NA,NA,NA,NA,NA,NA,NA,NA,NA,NA,NA,1,0,1,0,NA,NA,NA,NA,NA,NA,NA,NA,0,17,17,36,NA,NA,0.136440799979027,1435.34437050001,0.143945000017993,0.000691800029017031,0.000691800029017031,1441.29310519999,1441.29310519999,0.00987519999034703,-27,193,1,0,0,1.35689890000504,"'click_1'",2.09000427275896e-05,1442.65046199999,0.00880950002465397,NA,0.00266130000818521,0.00266130000818521,1443.15353960003,1443.15353960003,1443.15353960003,0.0118634999962524,-23,123,1,0,0,1.30673379998188,"'click_2'",1.4499993994832e-05,0.00875729997642338,"",NA,13,1,"control",25,"f",18,1,"ale_ila","2024-04-22_17h08.40.556","CPO_EEG","2022.2.1",99.8271991041581,NA
"stimoli/01.full/M02-Surprise-Face Forward.mp4","surprised","full","maschio",3,6,720,576,51,NA,NA,NA,NA,NA,NA,NA,NA,NA,NA,NA,NA,NA,NA,NA,NA,1,0,1,0,NA,NA,NA,NA,NA,NA,NA,NA,0,18,18,50,NA,NA,0.136164199968334,1446.09541120002,0.143569400010165,0.000718499999493361,0.000718499999493361,1452.04654489999,1452.04654489999,0.0097669999813661,39,-154,1,0,0,3.73044570005732,"'click_1'",1.55000016093254e-05,1455.77756680001,0.00880090001737699,NA,0.00204690004466102,0.00204690004466102,1456.28018460004,1456.28018460004,1456.28018460004,0.0114655999932438,35,-146,1,0,0,1.90066530002514,"'click_2'",1.42999924719334e-05,0.00892069999827072,"",NA,13,1,"control",25,"f",18,1,"ale_ila","2024-04-22_17h08.40.556","CPO_EEG","2022.2.1",99.8271991041581,NA
"stimoli/02.subtle/JM1_Fear.mp4","fear","subtle","maschio",7,10,1646,926,3,NA,NA,NA,NA,NA,NA,NA,NA,NA,NA,NA,NA,NA,NA,NA,NA,1,0,1,0,NA,NA,NA,NA,NA,NA,NA,NA,0,19,19,2,NA,NA,0.137105100031476,1459.8166351,0.144445000041742,0.000716700043994933,0.000716700043994933,1470.1685962,1470.1685962,0.0098487000213936,30,-98,1,0,0,2.0106523000286,"'click_1'",1.55000016093254e-05,1472.17995870003,0.00907779997214675,NA,0.00221730000339448,0.00221730000339448,1472.68231970002,1472.68231970002,1472.68231970002,0.0114372999523766,-54,-92,1,0,0,4.11255100002745,"'click_2'",1.4499993994832e-05,0.00873889995273203,"",NA,13,1,"control",25,"f",18,1,"ale_ila","2024-04-22_17h08.40.556","CPO_EEG","2022.2.1",99.8271991041581,NA
"stimoli/01.full/F01-Neutral-Face Forward.mp4","neutral","full","femmina",1,6,720,576,53,NA,NA,NA,NA,NA,NA,NA,NA,NA,NA,NA,NA,NA,NA,NA,NA,1,0,1,0,NA,NA,NA,NA,NA,NA,NA,NA,0,20,20,52,NA,NA,0.135156799980905,1478.42924299999,0.142703899997286,0.000835400016512722,0.000835400016512722,1484.37894680002,1484.37894680002,0.0100138999987394,0,0,1,0,0,1.04504559998168,"'click_1'",1.51999993249774e-05,1485.42450170004,0.00884780002525076,NA,0.00238630000967532,0.00238630000967532,1485.92731500004,1485.92731500004,1485.92731500004,0.0116780999815091,0,0,1,0,0,0.371423000004143,"'click_2'",1.3899989426136e-05,0.00893980002729222,"",NA,13,1,"control",25,"f",18,1,"ale_ila","2024-04-22_17h08.40.556","CPO_EEG","2022.2.1",99.8271991041581,NA
"stimoli/02.subtle/JF1_Neutral.mp4","neutral","subtle","femmina",5,10,1646,926,25,NA,NA,NA,NA,NA,NA,NA,NA,NA,NA,NA,NA,NA,NA,NA,NA,1,0,1,0,NA,NA,NA,NA,NA,NA,NA,NA,0,21,21,24,NA,NA,0.138567299989518,1487.93609050004,0.145877100003418,0.000860499974805862,0.000860499974805862,1498.68852120003,1498.68852120003,0.00977160001639277,0,0,1,0,0,0.662927099969238,"'click_1'",1.58000038936734e-05,1499.35205779999,0.00875490001635626,NA,0.00194119999650866,0.00194119999650866,1499.8545902,1499.8545902,1499.8545902,0.0112694000126794,0,0,1,0,0,0.763990900013596,"'click_2'",1.39000476337969e-05,0.00890120002441108,"",NA,13,1,"control",25,"f",18,1,"ale_ila","2024-04-22_17h08.40.556","CPO_EEG","2022.2.1",99.8271991041581,NA
"stimoli/01.full/M02-Anger-Face Forward.mp4","angry","full","maschio",3,6,720,576,35,NA,NA,NA,NA,NA,NA,NA,NA,NA,NA,NA,NA,NA,NA,NA,NA,1,0,1,0,NA,NA,NA,NA,NA,NA,NA,NA,0,22,22,34,NA,NA,0.13660389999859,1502.25393489999,0.143872599990573,0.000709399988409132,0.000709399988409132,1508.2033549,1508.2033549,0.00991109997266904,-52,79,1,0,0,3.24704769998789,"'click_1'",1.51999993249774e-05,1511.45103210001,0.00893200002610683,NA,0.00221619999501854,0.00221619999501854,1511.9535448,1511.9535448,1511.9535448,0.0114837000146508,-93,18,1,0,0,4.34408239996992,"'click_2'",1.49999978020787e-05,0.00888879998819903,"",NA,13,1,"control",25,"f",18,1,"ale_ila","2024-04-22_17h08.40.556","CPO_EEG","2022.2.1",99.8271991041581,NA
"stimoli/02.subtle/JF2_Surprise.mp4","surprised","subtle","femmina",6,10,1646,926,22,NA,NA,NA,NA,NA,NA,NA,NA,NA,NA,NA,NA,NA,NA,NA,NA,1,0,1,0,NA,NA,NA,NA,NA,NA,NA,NA,0,23,23,21,NA,NA,0.138900999969337,1517.93537339999,0.146206200006418,0.000687199993990362,0.000687199993990362,1528.2862803,1528.2862803,0.00990800000727177,-74,122,1,0,0,1.34713740000734,"'click_1'",1.51999993249774e-05,1529.63380780001,0.00877479999326169,NA,0.00224920001346618,0.00224920001346618,1530.13655890001,1530.13655890001,1530.13655890001,0.0115258999867365,-78,122,1,0,0,2.16170979995513,"'click_2'",1.36999879032373e-05,0.0086497999727726,"",NA,13,1,"control",25,"f",18,1,"ale_ila","2024-04-22_17h08.40.556","CPO_EEG","2022.2.1",99.8271991041581,NA
"stimoli/01.full/F03-Anger-Face Forward.mp4","angry","full","femmina",2,6,720,576,34,NA,NA,NA,NA,NA,NA,NA,NA,NA,NA,NA,NA,NA,NA,NA,NA,1,0,1,0,NA,NA,NA,NA,NA,NA,NA,NA,0,24,24,33,NA,NA,0.136307999957353,1533.93354190001,0.143646799959242,0.000720800017006695,0.000720800017006695,1539.8824986,1539.8824986,0.00987910002004355,-26,139,1,0,0,1.49807380000129,"'click_1'",1.46999955177307e-05,1541.38086610002,0.00865179998800159,NA,0.00220839999383315,0.00220839999383315,1541.88358670002,1541.88358670002,1541.88358670002,0.0113842999562621,-75,-118,1,0,0,1.38721439999063,"'click_2'",1.40999909490347e-05,0.00897379999514669,"",NA,13,1,"control",25,"f",18,1,"ale_ila","2024-04-22_17h08.40.556","CPO_EEG","2022.2.1",99.8271991041581,NA
"stimoli/02.subtle/JM2_Happiness.mp4","happy","subtle","maschio",8,10,1646,926,16,NA,NA,NA,NA,NA,NA,NA,NA,NA,NA,NA,NA,NA,NA,NA,NA,1,0,1,0,NA,NA,NA,NA,NA,NA,NA,NA,0,25,25,15,NA,NA,0.137029200035613,1544.9063336,0.143976100021973,0.000686699990183115,0.000686699990183115,1555.46135470003,1555.46135470003,0.00990320002892986,138,25,1,0,0,2.92544439999619,"'click_1'",1.49999978020787e-05,1558.38737469999,0.00900820002425462,NA,0.00275720003992319,0.00275720003992319,1558.89040239999,1558.89040239999,1558.89040239999,0.0120480000041425,141,31,1,0,0,2.19145420001587,"'click_2'",1.95999746210873e-05,0.00888410001061857,"",NA,13,1,"control",25,"f",18,1,"ale_ila","2024-04-22_17h08.40.556","CPO_EEG","2022.2.1",99.8271991041581,NA
"stimoli/01.full/F01-Fear-Face Forward.mp4","fear","full","femmina",1,6,720,576,29,NA,NA,NA,NA,NA,NA,NA,NA,NA,NA,NA,NA,NA,NA,NA,NA,1,0,1,0,NA,NA,NA,NA,NA,NA,NA,NA,0,26,26,28,NA,NA,0.135970600007568,1562.71656020003,0.143206099979579,0.000717699993401766,0.000717699993401766,1568.66575680004,1568.66575680004,0.00992100004805252,41,-149,1,0,0,4.85690810001688,"'click_1'",1.48999970406294e-05,1573.52324920002,0.00899499998195097,NA,0.00249949999852106,0.00249949999852106,1574.02602620004,1574.02602620004,1574.02602620004,0.0117690000333823,34,-144,1,0,0,1.66917799995281,"'click_2'",1.51999993249774e-05,0.00881410000147298,"",NA,13,1,"control",25,"f",18,1,"ale_ila","2024-04-22_17h08.40.556","CPO_EEG","2022.2.1",99.8271991041581,NA
"stimoli/02.subtle/JF2_Anger.mp4","angry","subtle","femmina",6,9,1646,926,6,NA,NA,NA,NA,NA,NA,NA,NA,NA,NA,NA,NA,NA,NA,NA,NA,1,0,1,0,NA,NA,NA,NA,NA,NA,NA,NA,0,27,27,5,NA,NA,0.140346699976362,1577.33450430003,0.147731199976988,0.000815899984445423,0.000815899984445423,1586.76947170001,1586.76947170001,0.00966079998761415,-115,179,1,0,0,2.04054789996007,"'click_1'",1.46999955177307e-05,1588.81095810002,0.00901650002924725,NA,0.00262199999997392,0.00262199999997392,1589.31369790004,1589.31369790004,1589.31369790004,0.0117768000345677,-118,73,1,0,0,1.80937299999641,"'click_2'",3.00999963656068e-05,0.00884190003853291,"",NA,13,1,"control",25,"f",18,1,"ale_ila","2024-04-22_17h08.40.556","CPO_EEG","2022.2.1",99.8271991041581,NA
"stimoli/02.subtle/JM2_Anger.mp4","angry","subtle","maschio",8,10,1646,926,8,NA,NA,NA,NA,NA,NA,NA,NA,NA,NA,NA,NA,NA,NA,NA,NA,1,0,1,0,NA,NA,NA,NA,NA,NA,NA,NA,0,28,28,7,NA,NA,0.137872899998911,1592.75993589999,0.145172699994873,0.000688100000843406,0.000688100000843406,1603.6745041,1603.6745041,0.00987309997435659,-186,-33,1,0,0,2.46336140000494,"'click_1'",1.49999978020787e-05,1606.13837599999,0.00893080001696944,NA,0.00229849998140708,0.00229849998140708,1606.64106140001,1606.64106140001,1606.64106140001,0.0116255999892019,-37,-174,1,0,0,1.44787999999244,"'click_2'",3.98000120185316e-05,0.00844050000887364,"",NA,13,1,"control",25,"f",18,1,"ale_ila","2024-04-22_17h08.40.556","CPO_EEG","2022.2.1",99.8271991041581,NA
"stimoli/01.full/F01-Surprise-Face Forward.mp4","surprised","full","femmina",1,6,720,576,49,NA,NA,NA,NA,NA,NA,NA,NA,NA,NA,NA,NA,NA,NA,NA,NA,1,0,1,0,NA,NA,NA,NA,NA,NA,NA,NA,0,29,29,48,NA,NA,0.136989000020549,1609.72477720003,0.14436159998877,0.000682800018694252,0.000682800018694252,1615.67267900001,1615.67267900001,0.00977800000691786,32,-135,1,0,0,1.30692140001338,"'click_1'",1.50999985635281e-05,1616.98008220003,0.0088044999865815,NA,0.00243170000612736,0.00243170000612736,1617.48292020004,1617.48292020004,1617.48292020004,0.0116761999670416,39,-132,1,0,0,1.45932119997451,"'click_2'",1.82000221684575e-05,0.00896520004607737,"",NA,13,1,"control",25,"f",18,1,"ale_ila","2024-04-22_17h08.40.556","CPO_EEG","2022.2.1",99.8271991041581,NA
"stimoli/02.subtle/JM1_Disgust.mp4","disgusted","subtle","maschio",7,10,1646,926,11,NA,NA,NA,NA,NA,NA,NA,NA,NA,NA,NA,NA,NA,NA,NA,NA,1,0,1,0,NA,NA,NA,NA,NA,NA,NA,NA,0,30,30,10,NA,NA,0.138506000046618,1620.57960280002,0.145734600024298,0.000783300027251244,0.000783300027251244,1630.93060940003,1630.93060940003,0.00960819999454543,-150,99,1,0,0,2.07044260000112,"'click_1'",1.60000054165721e-05,1633.00206810003,0.00899820000631735,NA,0.00244220002787188,0.00244220002787188,1633.5049309,1633.5049309,1633.5049309,0.0118654000107199,-80,128,1,0,0,1.85997569997562,"'click_2'",1.45999947562814e-05,0.00877489999402314,"",NA,13,1,"control",25,"f",18,1,"ale_ila","2024-04-22_17h08.40.556","CPO_EEG","2022.2.1",99.8271991041581,NA
"stimoli/01.full/M03-Anger-Face Forward.mp4","angry","full","maschio",4,6,720,576,36,NA,NA,NA,NA,NA,NA,NA,NA,NA,NA,NA,NA,NA,NA,NA,NA,1,0,1,0,NA,NA,NA,NA,NA,NA,NA,NA,0,31,31,35,NA,NA,0.137035500025377,1637.00111690001,0.144817600026727,0.000690600019879639,0.000690600019879639,1642.94855060003,1642.94855060003,0.00972420000471175,-36,170,1,0,0,2.26193239999702,"'click_1'",1.49999978020787e-05,1645.2111206,0.00888979999581352,NA,0.00250629999209195,0.00250629999209195,1645.7140182,1645.7140182,1645.7140182,0.0117789999931119,-41,173,1,0,0,1.36705260002054,"'click_2'",1.479999627918e-05,0.00873480003792793,"",NA,13,1,"control",25,"f",18,1,"ale_ila","2024-04-22_17h08.40.556","CPO_EEG","2022.2.1",99.8271991041581,NA
"stimoli/02.subtle/JF1_Sadness.mp4","sad","subtle","femmina",5,10,1646,926,17,NA,NA,NA,NA,NA,NA,NA,NA,NA,NA,NA,NA,NA,NA,NA,NA,1,0,1,0,NA,NA,NA,NA,NA,NA,NA,NA,0,32,32,16,NA,NA,0.138577800011262,1648.71855460003,0.145944899995811,0.000705899961758405,0.000705899961758405,1659.47162610001,1659.47162610001,0.00975909997941926,-21,-128,1,0,0,1.67848760000197,"'click_1'",1.479999627918e-05,1661.15076280001,0.00888989999657497,NA,0.00231060001533478,0.00231060001533478,1661.6535742,1661.6535742,1661.6535742,0.0117211000178941,-20,-124,1,0,0,1.99076519999653,"'click_2'",1.57000031322241e-05,0.00887000001966953,"",NA,13,1,"control",25,"f",18,1,"ale_ila","2024-04-22_17h08.40.556","CPO_EEG","2022.2.1",99.8271991041581,NA
"stimoli/02.subtle/JM2_Fear.mp4","fear","subtle","maschio",8,10,1646,926,4,NA,NA,NA,NA,NA,NA,NA,NA,NA,NA,NA,NA,NA,NA,NA,NA,1,0,1,0,NA,NA,NA,NA,NA,NA,NA,NA,0,33,33,3,NA,NA,0.13796080002794,1665.28088630002,0.145089900004677,0.000671000045258552,0.000671000045258552,1675.83312030003,1675.83312030003,0.00988690002122894,27,-144,1,0,0,1.29656659998,"'click_1'",1.4499993994832e-05,1677.13006689999,0.00881870003649965,NA,0.00229169998783618,0.00229169998783618,1677.63274199999,1677.63274199999,1677.63274199999,0.0115015000337735,30,-139,1,0,0,1.61837779998314,"'click_2'",1.4199991710484e-05,0.00900560000445694,"",NA,13,1,"control",25,"f",18,1,"ale_ila","2024-04-22_17h08.40.556","CPO_EEG","2022.2.1",99.8271991041581,NA
"stimoli/01.full/F03-Disgust-Face Forward.mp4","disgusted","full","femmina",2,6,720,576,38,NA,NA,NA,NA,NA,NA,NA,NA,NA,NA,NA,NA,NA,NA,NA,NA,1,0,1,0,NA,NA,NA,NA,NA,NA,NA,NA,0,34,34,37,NA,NA,0.136414800013881,1680.8863743,0.143716100021265,0.000793999992311001,0.000793999992311001,1686.83583220001,1686.83583220001,0.00971890002256259,-31,188,1,0,0,1.24640090001049,"'click_1'",1.70000130310655e-05,1688.08284789999,0.00871439999900758,NA,0.00169050000840798,0.00169050000840798,1688.58525830001,1688.58525830001,1688.58525830001,0.0110894000390545,-120,88,1,0,0,2.01103950000834,"'click_2'",1.479999627918e-05,0.00889549998100847,"",NA,13,1,"control",25,"f",18,1,"ale_ila","2024-04-22_17h08.40.556","CPO_EEG","2022.2.1",99.8271991041581,NA
"stimoli/01.full/M02-Fear-Face Forward.mp4","fear","full","maschio",3,6,720,576,31,NA,NA,NA,NA,NA,NA,NA,NA,NA,NA,NA,NA,NA,NA,NA,NA,1,0,1,0,NA,NA,NA,NA,NA,NA,NA,NA,0,35,35,30,NA,NA,0.135071799973957,1692.23000829999,0.142326799978036,0.000855299993418157,0.000855299993418157,1698.17991950002,1698.17991950002,0.0097177000134252,-94,-150,1,0,0,1.34680800000206,"'click_1'",1.58000038936734e-05,1699.52773999999,0.00903299998026341,NA,0.00255360000301152,0.00255360000301152,1700.03054040001,1700.03054040001,1700.03054040001,0.0118486999999732,32,-136,1,0,0,1.1961222999962,"'click_2'",1.45999947562814e-05,0.00902339996537194,"",NA,13,1,"control",25,"f",18,1,"ale_ila","2024-04-22_17h08.40.556","CPO_EEG","2022.2.1",99.8271991041581,NA
"stimoli/02.subtle/JF1_Anger.mp4","angry","subtle","femmina",5,10,1646,926,5,NA,NA,NA,NA,NA,NA,NA,NA,NA,NA,NA,NA,NA,NA,NA,NA,1,0,1,0,NA,NA,NA,NA,NA,NA,NA,NA,0,36,36,4,NA,NA,0.139973999990616,1702.86548209999,0.147309099964332,0.00073339999653399,0.00073339999653399,1713.61736989999,1713.61736989999,0.00977710000006482,0,0,1,0,0,0.531976600002963,"'click_1'",2.35000043176115e-05,1714.15007229999,0.00892530003329739,NA,0.00219460000516847,0.00219460000516847,1714.65256339998,1714.65256339998,1714.65256339998,0.0114505999954417,0,0,1,0,0,0.391862399992533,"'click_2'",1.49999978020787e-05,0.00887279998278245,"",NA,13,1,"control",25,"f",18,1,"ale_ila","2024-04-22_17h08.40.556","CPO_EEG","2022.2.1",99.8271991041581,NA
"stimoli/01.full/M03-Joy-Face Forward.mp4","happy","full","maschio",4,6,720,576,44,NA,NA,NA,NA,NA,NA,NA,NA,NA,NA,NA,NA,NA,NA,NA,NA,1,0,1,0,NA,NA,NA,NA,NA,NA,NA,NA,0,37,37,43,NA,NA,0.136142699979246,1716.67944079998,0.143500400008634,0.000608100031968206,0.000608100031968206,1722.62872570002,1722.62872570002,0.0098361000418663,86,127,1,0,0,6.04341000004206,"'click_1'",1.46999955177307e-05,1728.6724634,0.00876100000459701,NA,0.00255769997602329,0.00255769997602329,1729.17545420001,1729.17545420001,1729.17545420001,0.011791400029324,136,31,1,0,0,1.22630989999743,"'click_2'",2.6299967430532e-05,0.0086182999657467,"",NA,13,1,"control",25,"f",18,1,"ale_ila","2024-04-22_17h08.40.556","CPO_EEG","2022.2.1",99.8271991041581,NA
"stimoli/01.full/M02-Joy-Face Forward.mp4","happy","full","maschio",3,6,720,576,43,NA,NA,NA,NA,NA,NA,NA,NA,NA,NA,NA,NA,NA,NA,NA,NA,1,0,1,0,NA,NA,NA,NA,NA,NA,NA,NA,0,38,38,42,NA,NA,0.135770299995784,1732.03656179999,0.143121899978723,0.000853799981996417,0.000853799981996417,1737.98615950003,1737.98615950003,0.00982450001174584,128,79,1,0,0,1.80922379996628,"'click_1'",1.4499993994832e-05,1739.79623179999,0.00897769996663556,NA,0.00252959999488667,0.00252959999488667,1740.29907370004,1740.29907370004,1740.29907370004,0.0118578999536112,123,77,1,0,0,2.09132090001367,"'click_2'",1.45999947562814e-05,0.00892349996138364,"",NA,13,1,"control",25,"f",18,1,"ale_ila","2024-04-22_17h08.40.556","CPO_EEG","2022.2.1",99.8271991041581,NA
"stimoli/02.subtle/JF2_Neutral.mp4","neutral","subtle","femmina",6,9,1646,926,26,NA,NA,NA,NA,NA,NA,NA,NA,NA,NA,NA,NA,NA,NA,NA,NA,1,0,1,0,NA,NA,NA,NA,NA,NA,NA,NA,0,39,39,25,NA,NA,0.140649600012694,1744.02992250002,0.148036299971864,0.000827700016088784,0.000827700016088784,1753.46369210002,1753.46369210002,0.00980110000818968,0,0,1,0,0,0.843976099975407,"'click_1'",2.40000081248581e-05,1754.30844520003,0.00891580001916736,NA,0.00230059999739751,0.00230059999739751,1754.81118830002,1754.81118830002,1754.81118830002,0.0116500000003725,-12,63,1,0,0,1.32692469999893,"'click_2'",1.58000038936734e-05,0.00880940002389252,"",NA,13,1,"control",25,"f",18,1,"ale_ila","2024-04-22_17h08.40.556","CPO_EEG","2022.2.1",99.8271991041581,NA
"stimoli/02.subtle/JM1_Neutral.mp4","neutral","subtle","maschio",7,10,1646,926,27,NA,NA,NA,NA,NA,NA,NA,NA,NA,NA,NA,NA,NA,NA,NA,NA,1,0,1,0,NA,NA,NA,NA,NA,NA,NA,NA,0,40,40,26,NA,NA,0.136061800003517,1757.7729792,0.143410700024106,0.000767300021834671,0.000767300021834671,1768.1270111,1768.1270111,0.00977559998864308,0,0,1,0,0,0.491821699950378,"'click_1'",1.50999985635281e-05,1768.61971629999,0.00906680000480264,NA,0.00256640004226938,0.00256640004226938,1769.1227142,1769.1227142,1769.1227142,0.0120700999977998,0,32,1,0,0,0.823922300012782,"'click_2'",1.3899989426136e-05,0.00916469999356195,"",NA,13,1,"control",25,"f",18,1,"ale_ila","2024-04-22_17h08.40.556","CPO_EEG","2022.2.1",99.8271991041581,NA
"stimoli/02.subtle/JM2_Disgust.mp4","disgusted","subtle","maschio",8,10,1646,926,12,NA,NA,NA,NA,NA,NA,NA,NA,NA,NA,NA,NA,NA,NA,NA,NA,1,0,1,0,NA,NA,NA,NA,NA,NA,NA,NA,0,41,41,11,NA,NA,0.137665599992033,1771.58291990001,0.14502649998758,0.000686499988660216,0.000686499988660216,1782.13504110003,1782.13504110003,0.00973739998880774,-73,53,1,0,0,1.59822729998268,"'click_1'",1.46999955177307e-05,1783.73369700002,0.0085759999928996,NA,0.00229340000078082,0.00229340000078082,1784.23663559998,1784.23663559998,1784.23663559998,0.01151059998665,-75,49,1,0,0,1.55801120004617,"'click_2'",1.39999901875854e-05,0.00908160000108182,"",NA,13,1,"control",25,"f",18,1,"ale_ila","2024-04-22_17h08.40.556","CPO_EEG","2022.2.1",99.8271991041581,NA
"stimoli/01.full/M03-Disgust-Face Forward.mp4","disgusted","full","maschio",4,6,720,576,40,NA,NA,NA,NA,NA,NA,NA,NA,NA,NA,NA,NA,NA,NA,NA,NA,1,0,1,0,NA,NA,NA,NA,NA,NA,NA,NA,0,42,42,39,NA,NA,0.139573699969333,1787.43308420002,0.146922399988398,0.000817399995867163,0.000817399995867163,1793.39103420003,1793.39103420003,0.00944400002481416,-28,135,1,0,0,1.84971420001239,"'click_1'",1.46999955177307e-05,1795.24194169999,0.00901280000107363,NA,0.00269509997451678,0.00269509997451678,1795.74481330003,1795.74481330003,1795.74481330003,0.0119005999877118,-34,130,1,0,0,1.39716950000729,"'click_2'",1.42999924719334e-05,0.00891749997390434,"",NA,13,1,"control",25,"f",18,1,"ale_ila","2024-04-22_17h08.40.556","CPO_EEG","2022.2.1",99.8271991041581,NA
"stimoli/02.subtle/JF2_Disgust.mp4","disgusted","subtle","femmina",6,10,1646,926,10,NA,NA,NA,NA,NA,NA,NA,NA,NA,NA,NA,NA,NA,NA,NA,NA,1,0,1,0,NA,NA,NA,NA,NA,NA,NA,NA,0,43,43,9,NA,NA,0.139605499978643,1798.78061379999,0.147082099982072,0.000686400046106428,0.000686400046106428,1809.13023030001,1809.13023030001,0.00975810003001243,-34,-147,1,0,0,1.72915100003593,"'click_1'",1.50999985635281e-05,1810.85990129999,0.00881660002050921,NA,0.00251140003092587,0.00251140003092587,1811.36287980003,1811.36287980003,1811.36287980003,0.011792300036177,-28,-132,1,0,0,2.0307812000392,"'click_2'",1.4800054486841e-05,0.00906680000480264,"",NA,13,1,"control",25,"f",18,1,"ale_ila","2024-04-22_17h08.40.556","CPO_EEG","2022.2.1",99.8271991041581,NA
"stimoli/01.full/F01-Joy-Face Forward.mp4","happy","full","femmina",1,6,720,576,41,NA,NA,NA,NA,NA,NA,NA,NA,NA,NA,NA,NA,NA,NA,NA,NA,1,0,1,0,NA,NA,NA,NA,NA,NA,NA,NA,0,44,44,40,NA,NA,0.13548640004592,1815.02804960002,0.142878400045447,0.00085919996490702,0.00085919996490702,1820.97858659999,1820.97858659999,0.00970139994751662,117,72,1,0,0,1.46759650000604,"'click_1'",1.78000191226602e-05,1822.44681520003,0.0086948000243865,NA,0.00213949999306351,0.00213949999306351,1822.94955070002,1822.94955070002,1822.94955070002,0.0114261999842711,0,0,1,0,0,0.421807899954729,"'click_2'",1.3899989426136e-05,0.00887740001780912,"",NA,13,1,"control",25,"f",18,1,"ale_ila","2024-04-22_17h08.40.556","CPO_EEG","2022.2.1",99.8271991041581,NA
"stimoli/02.subtle/JM1_Happiness.mp4","happy","subtle","maschio",7,10,1646,926,15,NA,NA,NA,NA,NA,NA,NA,NA,NA,NA,NA,NA,NA,NA,NA,NA,1,0,1,0,NA,NA,NA,NA,NA,NA,NA,NA,0,45,45,14,NA,NA,0.137281399976928,1825.0075984,0.14465079997899,0.000812300015240908,0.000812300015240908,1835.35895560001,1835.35895560001,0.00966069998685271,121,87,1,0,0,1.50723070005188,"'click_1'",1.46999955177307e-05,1836.86717099999,0.00907099997857586,NA,0.00286369997775182,0.00286369997775182,1837.37014000001,1837.37014000001,1837.37014000001,0.0120567999547347,122,95,1,0,0,1.12619239999913,"'click_2'",2.10999860428274e-05,0.00958249997347593,"",NA,13,1,"control",25,"f",18,1,"ale_ila","2024-04-22_17h08.40.556","CPO_EEG","2022.2.1",99.8271991041581,NA
"stimoli/01.full/F03-Neutral-Face Forward.mp4","neutral","full","femmina",2,6,720,576,54,NA,NA,NA,NA,NA,NA,NA,NA,NA,NA,NA,NA,NA,NA,NA,NA,1,0,1,0,NA,NA,NA,NA,NA,NA,NA,NA,0,46,46,53,NA,NA,0.136025100015104,1840.13153509999,0.143390499986708,0.000763799995183945,0.000763799995183945,1846.08245320001,1846.08245320001,0.00976729998365045,0,0,1,0,0,1.05478669999866,"'click_1'",1.55000016093254e-05,1847.13800879999,0.0089915000135079,NA,0.00264929997501895,0.00264929997501895,1847.64106270002,1847.64106270002,1847.64106270002,0.0120611999882385,0,0,1,0,0,0.240764499991201,"'click_2'",1.4499993994832e-05,0.00891439995029941,"",NA,13,1,"control",25,"f",18,1,"ale_ila","2024-04-22_17h08.40.556","CPO_EEG","2022.2.1",99.8271991041581,NA
"stimoli/01.full/M03-Fear-Face Forward.mp4","fear","full","maschio",4,6,720,576,32,NA,NA,NA,NA,NA,NA,NA,NA,NA,NA,NA,NA,NA,NA,NA,NA,1,0,1,0,NA,NA,NA,NA,NA,NA,NA,NA,0,47,47,31,NA,NA,0.136864999949466,1849.5172989,0.144141199998558,0.000659200013615191,0.000659200013615191,1855.46674150001,1855.46674150001,0.00988660001894459,-67,-126,1,0,0,2.01052270003129,"'click_1'",1.54000008478761e-05,1857.47781900002,0.0089839999563992,NA,0.00227179995272309,0.00227179995272309,1857.98053480004,1857.98053480004,1857.98053480004,0.0117241999832913,-99,-65,1,0,0,1.44818870001473,"'click_2'",1.49999978020787e-05,0.00884180003777146,"",NA,13,1,"control",25,"f",18,1,"ale_ila","2024-04-22_17h08.40.556","CPO_EEG","2022.2.1",99.8271991041581,NA
"stimoli/01.full/M02-Disgust-Face Forward.mp4","disgusted","full","maschio",3,6,720,576,39,NA,NA,NA,NA,NA,NA,NA,NA,NA,NA,NA,NA,NA,NA,NA,NA,1,0,1,0,NA,NA,NA,NA,NA,NA,NA,NA,0,48,48,38,NA,NA,0.136573800002225,1861.06429820001,0.144133800000418,0.000805700023192912,0.000805700023192912,1867.0125365,1867.0125365,0.00969630002509803,-85,64,1,0,0,3.45878970000194,"'click_1'",1.4499993994832e-05,1870.47207750002,0.008836799999699,NA,0.0027171999681741,0.0027171999681741,1870.97507520003,1870.97507520003,1870.97507520003,0.0118618999840692,-82,59,1,0,0,1.40732870000647,"'click_2'",1.4199991710484e-05,0.00870139995822683,"",NA,13,1,"control",25,"f",18,1,"ale_ila","2024-04-22_17h08.40.556","CPO_EEG","2022.2.1",99.8271991041581,NA
"stimoli/01.full/M02-Sadness-Face Forward.mp4","sad","full","maschio",3,6,720,576,47,NA,NA,NA,NA,NA,NA,NA,NA,NA,NA,NA,NA,NA,NA,NA,NA,1,0,1,0,NA,NA,NA,NA,NA,NA,NA,NA,0,49,49,46,NA,NA,0.135105599998496,1874.01653389999,0.142448999977205,0.000669499975629151,0.000669499975629151,1879.6048032,1879.6048032,0.00975590001326054,-22,-141,1,0,0,2.22182410000823,"'click_1'",1.4499993994832e-05,1881.82749940001,0.00915579998400062,NA,0.00246739998692647,0.00246739998692647,1882.33006070001,1882.33006070001,1882.33006070001,0.0117642999975942,2,1,1,0,0,0.351539299997967,"'click_2'",1.84999662451446e-05,0.00881159998243675,"",NA,13,1,"control",25,"f",18,1,"ale_ila","2024-04-22_17h08.40.556","CPO_EEG","2022.2.1",99.8271991041581,NA
"stimoli/02.subtle/JF1_Disgust.mp4","disgusted","subtle","femmina",5,10,1646,926,9,NA,NA,NA,NA,NA,NA,NA,NA,NA,NA,NA,NA,NA,NA,NA,NA,1,0,1,0,NA,NA,NA,NA,NA,NA,NA,NA,0,50,50,8,NA,NA,0.139910799975041,1884.32065140002,0.147500699968077,0.000901099992915988,0.000901099992915988,1895.07267590001,1895.07267590001,0.0098223999957554,-93,147,1,0,0,1.87994800001616,"'click_1'",1.46999955177307e-05,1896.9533089,0.00884460000088438,NA,0.00219609995838255,0.00219609995838255,1897.45603180001,1897.45603180001,1897.45603180001,0.0115419999929145,-132,91,1,0,0,1.28719790000468,"'click_2'",1.4499993994832e-05,0.00874049996491522,"",NA,13,1,"control",25,"f",18,1,"ale_ila","2024-04-22_17h08.40.556","CPO_EEG","2022.2.1",99.8271991041581,NA
"stimoli/01.full/F01-Sadness-Face Forward.mp4","sad","full","femmina",1,6,720,576,45,NA,NA,NA,NA,NA,NA,NA,NA,NA,NA,NA,NA,NA,NA,NA,NA,1,0,1,0,NA,NA,NA,NA,NA,NA,NA,NA,0,51,51,44,NA,NA,0.134898499993142,1900.3773397,0.142563999979757,0.000784999981988221,0.000784999981988221,1906.32703570003,1906.32703570003,0.0106814000173472,-26,-133,1,0,0,1.72884579998208,"'click_1'",2.0399980712682e-05,1908.05556180002,0.0088114999816753,NA,0.00241489999461919,0.00241489999461919,1908.55841689999,1908.55841689999,1908.55841689999,0.0116453999653459,-25,-128,1,0,0,2.23176419996889,"'click_2'",1.46999955177307e-05,0.0088786999695003,"",NA,13,1,"control",25,"f",18,1,"ale_ila","2024-04-22_17h08.40.556","CPO_EEG","2022.2.1",99.8271991041581,NA
"stimoli/02.subtle/JM1_Anger.mp4","angry","subtle","maschio",7,10,1646,926,7,NA,NA,NA,NA,NA,NA,NA,NA,NA,NA,NA,NA,NA,NA,NA,NA,1,0,1,0,NA,NA,NA,NA,NA,NA,NA,NA,0,52,52,6,NA,NA,0.137067799980287,1912.42596210004,0.14424399996642,0.000714100024197251,0.000714100024197251,1922.77923460002,1922.77923460002,0.00970210001105443,-25,174,1,0,0,2.09108179999748,"'click_1'",1.53000000864267e-05,1924.87090760004,0.00871670001652092,NA,0.00213869998697191,0.00213869998697191,1925.37366859999,1925.37366859999,1925.37366859999,0.0114991000154987,-34,175,1,0,0,1.47791059996234,"'click_2'",2.02000373974442e-05,0.00877050001872703,"",NA,13,1,"control",25,"f",18,1,"ale_ila","2024-04-22_17h08.40.556","CPO_EEG","2022.2.1",99.8271991041581,NA
"stimoli/02.subtle/JM2_Neutral.mp4","neutral","subtle","maschio",8,10,1646,926,28,NA,NA,NA,NA,NA,NA,NA,NA,NA,NA,NA,NA,NA,NA,NA,NA,1,0,1,0,NA,NA,NA,NA,NA,NA,NA,NA,0,53,53,27,NA,NA,0.136829600029159,1928.48733730003,0.144278299994767,0.000698500021826476,0.000698500021826476,1939.40257070004,1939.40257070004,0.00979720003670081,0,0,1,0,0,0.532071000023279,"'click_1'",1.64000084623694e-05,1939.93544610002,0.0090916000190191,NA,0.00259330001426861,0.00259330001426861,1940.4383337,1940.4383337,1940.4383337,0.0119643000070937,0,0,1,0,0,0.301255500002299,"'click_2'",1.64999510161579e-05,0.00890509999589995,"",NA,13,1,"control",25,"f",18,1,"ale_ila","2024-04-22_17h08.40.556","CPO_EEG","2022.2.1",99.8271991041581,NA
"stimoli/02.subtle/JF1_Happiness.mp4","happy","subtle","femmina",5,10,1646,926,13,NA,NA,NA,NA,NA,NA,NA,NA,NA,NA,NA,NA,NA,NA,NA,NA,1,0,1,0,NA,NA,NA,NA,NA,NA,NA,NA,0,54,54,12,NA,NA,0.139917199965566,1942.3784481,0.147302199969999,0.000628600013442338,0.000628600013442338,1953.13012570003,1953.13012570003,0.00979040004312992,78,112,1,0,0,1.41756159998477,"'click_1'",1.57000031322241e-05,1954.54830349999,0.00888209999538958,NA,0.00239069998497143,0.00239069998497143,1955.05105459999,1955.05105459999,1955.05105459999,0.0116433000075631,98,79,1,0,0,1.60858589998679,"'click_2'",1.4499993994832e-05,0.00881430000299588,"",NA,13,1,"control",25,"f",18,1,"ale_ila","2024-04-22_17h08.40.556","CPO_EEG","2022.2.1",99.8271991041581,NA
"stimoli/01.full/F03-Joy-Face Forward.mp4","happy","full","femmina",2,6,720,576,42,NA,NA,NA,NA,NA,NA,NA,NA,NA,NA,NA,NA,NA,NA,NA,NA,1,0,1,0,NA,NA,NA,NA,NA,NA,NA,NA,0,55,55,41,NA,NA,0.134862200007774,1958.29337720003,0.142187900026329,0.000689799955580384,0.000689799955580384,1964.24396250001,1964.24396250001,0.00991749996319413,123,76,1,0,0,1.36705300002359,"'click_1'",1.54000008478761e-05,1965.61135110003,0.00874819996533915,NA,0.00212299998383969,0.00212299998383969,1966.1139921,1966.1139921,1966.1139921,0.0113777999649756,114,86,1,0,0,1.17639459995553,"'click_2'",1.47000537253916e-05,0.00870300002861768,"",NA,13,1,"control",25,"f",18,1,"ale_ila","2024-04-22_17h08.40.556","CPO_EEG","2022.2.1",99.8271991041581,NA
"","","","",NA,NA,NA,NA,NA,NA,NA,NA,NA,NA,NA,NA,NA,NA,NA,NA,NA,NA,NA,NA,NA,1,0,1,0,NA,NA,NA,NA,NA,NA,NA,NA,NA,NA,NA,NA,NA,NA,NA,NA,NA,NA,NA,NA,NA,NA,NA,NA,NA,NA,NA,NA,"",NA,NA,NA,NA,NA,NA,NA,NA,NA,NA,NA,NA,NA,NA,NA,NA,"",NA,NA,"",NA,13,1,"control",25,"f",18,1,"ale_ila","2024-04-22_17h08.40.556","CPO_EEG","2022.2.1",99.8271991041581,NA
