file,file_emotion,file_emotion_level,file_gender,file_id,file_duration,size_w,size_h,trigger,loop_practice_full.thisRepN,loop_practice_full.thisTrialN,loop_practice_full.thisN,loop_practice_full.thisIndex,loop_istr_practice.thisRepN,loop_istr_practice.thisTrialN,loop_istr_practice.thisN,loop_istr_practice.thisIndex,tuto.thisRepN,tuto.thisTrialN,tuto.thisN,tuto.thisIndex,loop_practice.thisRepN,loop_practice.thisTrialN,loop_practice.thisN,loop_practice.thisIndex,exp_blocks.thisRepN,exp_blocks.thisTrialN,exp_blocks.thisN,exp_blocks.thisIndex,istr_1.thisRepN,istr_1.thisTrialN,istr_1.thisN,istr_1.thisIndex,istr_2.thisRepN,istr_2.thisTrialN,istr_2.thisN,istr_2.thisIndex,exp.thisRepN,exp.thisTrialN,exp.thisN,exp.thisIndex,img_tutorial.started,key_resp.started,p_port.started,mov_target.started,p_port.stopped,p_port_2.started,primary.started,img_primary_wheel.started,click_1.started,p_port_2.stopped,primary.x,primary.y,primary.leftButton,primary.midButton,primary.rightButton,primary.time,primary.clicked_name,p_port_4.started,txt_iwi.started,p_port_4.stopped,txt_iwi.stopped,img_secondary_wheel.started,click_2.started,primary_pos.started,p_port_3.started,p_port_3.stopped,secondary.started,img_secondary_wheel.stopped,click_2.stopped,primary_pos.stopped,secondary.stopped,secondary.x,secondary.y,secondary.leftButton,secondary.midButton,secondary.rightButton,secondary.time,secondary.clicked_name,p_port_5.started,p_port_5.stopped,kb_end_practice.keys,kb_end_practice.rt,primary.stopped,img_primary_wheel.stopped,click_1.stopped,participant,session,group,age,sex,education,practice,experimenter,date,expName,psychopyVersion,frameRate,
stimoli/03.practice/F04-Joy-Face Forward.mp4,joy,full,femmina,9,6,700,700,59,0,0,0,0,,,,,,,,,0,0,0,2,,,,,,,,,,,,,,,,,150.58495870000024,150.58495870000024,0.5121666000000005,158.9295890000003,0.5200465000002623,0.0008052999996834842,0.0008052999996834842,164.87860890000002,164.87860890000002,0.01610439999967639,134.0,83.0,1,0,0,6.503889200000231,'click_1',2.230000018244027e-05,171.3757267000001,0.007270399999924848,171.87750240000014,171.87750240000014,171.87750240000014,171.87750240000014,0.009065600000212726,0.009065600000212726,0.009065600000212726,191.89038710000023,191.89038710000023,191.89038710000023,20.021923100000095,,,,,,,,2.080000012938399e-05,0.015540800000053423,,,,,,14_moebius_task,001,moebius,22,m,16,1,ari e sara,2024-01-19_13h33.18.738,CPO_EEG,2022.2.1,59.87640312866482,
stimoli/03.practice/F04-Sadness-Face Forward.mp4,sadness,full,femmina,9,6,700,700,60,0,0,0,0,,,,,,,,,0,1,1,3,,,,,,,,,,,,,,,,,,,0.13840590000017983,193.53734810000014,0.14577460000009523,0.0007808000000295579,0.0007808000000295579,199.51246930000025,199.51246930000025,0.016407099999923958,-35.0,-164.0,1,0,0,8.080928499999573,'click_1',1.3300000318849925e-05,207.59400320000032,0.015414200000122946,,208.09610780000003,208.09610780000003,208.09610780000003,0.001457000000300468,0.017524600000342616,0.001457000000300468,,,,,-38.0,-163.0,1,0,0,7.044005699999616,'click_2',1.6400000276917126e-05,0.015363299999989977,,,,,,14_moebius_task,001,moebius,22,m,16,1,ari e sara,2024-01-19_13h33.18.738,CPO_EEG,2022.2.1,59.87640312866482,
stimoli/03.practice/F04-Surprise-Face Forward.mp4,surprise,full,femmina,9,6,700,700,61,0,0,0,0,,,,,,,,,0,2,2,4,,,,,,,,,,,,,,,,,,,0.13877980000006573,216.77124090000007,0.14625000000023647,0.0007269000002452231,0.0007269000002452231,222.94766960000015,222.94766960000015,0.016413400000146794,33.0,-167.0,1,0,0,7.378966799999944,'click_1',1.3700000181415817e-05,230.32721519999996,0.01545620000024428,,230.82915010000033,230.82915010000033,230.82915010000033,0.0015621000002283836,0.01742580000018279,0.0015621000002283836,,,,,49.0,-68.0,1,0,0,10.507846099999824,'click_2',1.3299999864102574e-05,0.01553120000016861,,,,,,14_moebius_task,001,moebius,22,m,16,1,ari e sara,2024-01-19_13h33.18.738,CPO_EEG,2022.2.1,59.87640312866482,
stimoli/03.practice/F04-Disgust-Face Forward.mp4,disgust,full,femmina,9,6,700,700,58,0,0,0,0,,,,,,,,,0,3,3,1,,,,,,,,,,,,,,,,,,,0.13606789999994362,242.96546179999996,0.14352700000017649,0.0007435000002260495,0.0007435000002260495,248.94382640000003,248.94382640000003,0.016421100000115985,-167.0,110.0,1,0,0,4.70120659999975,'click_1',1.2999999853491317e-05,253.64571090000027,0.015589000000090891,,254.14747380000017,254.14747380000017,254.14747380000017,0.0014661999998679676,0.017387500000040745,0.0014661999998679676,,,,,-71.0,111.0,1,0,0,7.360982199999853,'click_2',1.4199999895936344e-05,0.015686700000060227,,,,,,14_moebius_task,001,moebius,22,m,16,1,ari e sara,2024-01-19_13h33.18.738,CPO_EEG,2022.2.1,59.87640312866482,
stimoli/03.practice/F04-Neutral-Face Forward.mp4,neutral,full,femmina,9,6,700,700,62,0,0,0,0,,,,,,,,,0,4,4,5,,,,,,,,,,,,,,,,,,,0.13742180000008375,263.1382490000001,0.14483900000004724,0.00068409999994401,0.00068409999994401,269.1158126,269.1158126,0.016558700000132376,0.0,0.0,1,0,0,3.6295515000001615,'click_1',1.4199999895936344e-05,272.74587109999993,0.01549750000003769,,273.24743720000015,273.24743720000015,273.24743720000015,0.0011487000001579872,0.01707540000006702,0.0011487000001579872,,,,,0.0,0.0,1,0,0,2.542473500000142,'click_2',1.340000017080456e-05,0.015572299999803363,,,,,,14_moebius_task,001,moebius,22,m,16,1,ari e sara,2024-01-19_13h33.18.738,CPO_EEG,2022.2.1,59.87640312866482,
stimoli/03.practice/F04-Anger-Face Forward.mp4,anger,full,femmina,9,6,700,700,57,0,0,0,0,,,,,,,,,0,5,5,0,,,,,,,,,,,,,,,,,,,0.1351568000000043,277.41729190000024,0.1425133000002461,0.0007286999998541432,0.0007286999998541432,283.39582199999995,283.39582199999995,0.016563899999709975,-41.0,200.0,1,0,0,6.6420468999999684,'click_1',1.2900000001536682e-05,290.0386867000002,0.015835599999718397,,290.5408136000001,290.5408136000001,290.5408136000001,0.0019645999996100727,0.017981199999667297,0.0019645999996100727,,,,,-3.0,3.0,1,0,0,8.315663700000187,'click_2',1.4299999747890979e-05,0.015553299999737646,,,,,,14_moebius_task,001,moebius,22,m,16,1,ari e sara,2024-01-19_13h33.18.738,CPO_EEG,2022.2.1,59.87640312866482,
,,,,,,,,,0,0,0,0,,,,,,,,,,,,,,,,,,,,,,,,,,,,,,,,,,,,,,,,,,,,,,,,,,,,,,,,,,,,,,,,,,,,,n,12.441216699999586,,,,14_moebius_task,001,moebius,22,m,16,1,ari e sara,2024-01-19_13h33.18.738,CPO_EEG,2022.2.1,59.87640312866482,
,,,,,,,,,,,,,,,,,,,,,,,,,0,0,0,0,0,0,0,0,,,,,,,,,,,,,,,,,,,,,,,,,,,,,,,,,,,,,,,,,,,,,,,,,,,,,,14_moebius_task,001,moebius,22,m,16,1,ari e sara,2024-01-19_13h33.18.738,CPO_EEG,2022.2.1,59.87640312866482,
stimoli/01.full/M03-Disgust-Face Forward.mp4,disgusted,full,maschio,4,6,720,576,40,,,,,,,,,,,,,,,,,0,0,0,0,,,,,,,,,0,0,0,39,,,0.14715190000015355,318.8678086,0.15439729999980045,0.0007201000003078661,0.0007201000003078661,324.8548202000002,324.8548202000002,0.016394600000239734,-172.0,115.0,1,0,0,9.787695399999848,'click_1',1.359999987471383e-05,334.64312910000035,0.015143000000080065,,335.1451423000003,335.1451423000003,335.1451423000003,0.0012721999996756495,0.017156299999896873,0.0012721999996756495,,,,,-44.0,67.0,1,0,0,9.001040699999976,'click_2',1.4199999895936344e-05,0.01517839999996795,,,,,,14_moebius_task,001,moebius,22,m,16,1,ari e sara,2024-01-19_13h33.18.738,CPO_EEG,2022.2.1,59.87640312866482,
stimoli/02.subtle/JF2_Happiness.mp4,happy,subtle,femmina,6,9,1646,926,14,,,,,,,,,,,,,,,,,0,0,0,0,,,,,,,,,0,1,1,13,,,0.15827050000007148,345.79725020000024,0.1657866999998987,0.0007368999999926018,0.0007368999999926018,355.2496610000003,355.2496610000003,0.016365800000130548,158.0,105.0,1,0,0,12.716488800000207,'click_1',1.359999987471383e-05,367.96677820000014,0.015507499999785068,,368.4686216,368.4686216,368.4686216,0.0016427999998995801,0.017341599999781465,0.0016427999998995801,,,,,65.0,-13.0,1,0,0,7.32729610000024,'click_2',1.359999987471383e-05,0.015451100000063889,,,,,,14_moebius_task,001,moebius,22,m,16,1,ari e sara,2024-01-19_13h33.18.738,CPO_EEG,2022.2.1,59.87640312866482,
stimoli/01.full/F01-Neutral-Face Forward.mp4,neutral,full,femmina,1,6,720,576,53,,,,,,,,,,,,,,,,,0,0,0,0,,,,,,,,,0,2,2,52,,,0.13703869999972085,377.4253413000001,0.1443141999998261,0.0007239999999910651,0.0007239999999910651,383.40250190000006,383.40250190000006,0.016347400000086054,1.0,0.0,1,0,0,11.242059899999731,'click_1',1.340000017080456e-05,394.64529740000035,0.015569600000162609,,395.1472498000003,395.1472498000003,395.1472498000003,0.0015991999998732354,0.017535299999963172,0.0015991999998732354,,,,,-10.0,61.0,1,0,0,4.684330999999929,'click_2',1.3100000160193304e-05,0.01544160000003103,,,,,,14_moebius_task,001,moebius,22,m,16,1,ari e sara,2024-01-19_13h33.18.738,CPO_EEG,2022.2.1,59.87640312866482,
stimoli/01.full/M02-Disgust-Face Forward.mp4,disgusted,full,maschio,3,6,720,576,39,,,,,,,,,,,,,,,,,0,0,0,0,,,,,,,,,0,3,3,38,,,0.13618670000005295,401.46013029999995,0.1436002999998891,0.0007274999998116982,0.0007274999998116982,407.43642090000003,407.43642090000003,0.016447900000002846,-139.0,93.0,1,0,0,9.551934999999958,'click_1',1.3299999864102574e-05,416.9889134,0.015499300000101357,,417.4910119000001,417.4910119000001,417.4910119000001,0.001476500000080705,0.01762619999999515,0.001476500000080705,,,,,0.0,1.0,1,0,0,8.364821199999824,'click_2',1.3300000318849925e-05,0.01567430000022796,,,,,,14_moebius_task,001,moebius,22,m,16,1,ari e sara,2024-01-19_13h33.18.738,CPO_EEG,2022.2.1,59.87640312866482,
stimoli/01.full/F03-Disgust-Face Forward.mp4,disgusted,full,femmina,2,6,720,576,38,,,,,,,,,,,,,,,,,0,0,0,0,,,,,,,,,0,4,4,37,,,0.16016720000015994,427.50824710000006,0.16775649999999587,0.0007215000000542204,0.0007215000000542204,433.4792838000003,433.4792838000003,0.01646900000014284,-39.0,200.0,1,0,0,4.048328099999708,'click_1',1.2799999694834696e-05,437.5281178,0.015455999999630876,,438.0298828,438.0298828,438.0298828,0.0013457000000016706,0.017219899999872723,0.0013457000000016706,,,,,-55.0,84.0,1,0,0,14.52183690000038,'click_2',1.3500000022759195e-05,0.015493099999730475,,,,,,14_moebius_task,001,moebius,22,m,16,1,ari e sara,2024-01-19_13h33.18.738,CPO_EEG,2022.2.1,59.87640312866482,
stimoli/02.subtle/JM1_Neutral.mp4,neutral,subtle,maschio,7,10,1646,926,27,,,,,,,,,,,,,,,,,0,0,0,0,,,,,,,,,0,5,5,26,,,0.14526569999998173,454.18924240000024,0.15261160000000018,0.0007070999999996275,0.0007070999999996275,464.574353,464.574353,0.016321099999913713,0.0,0.0,1,0,0,11.995754699999907,'click_1',1.5899999652901897e-05,476.5708628000002,0.015429399999902671,,477.0728081000002,477.0728081000002,477.0728081000002,0.0012753999999404186,0.01738439999962793,0.0012753999999404186,,,,,0.0,0.0,1,0,0,0.735591900000145,'click_2',1.3500000022759195e-05,0.01556010000012975,,,,,,14_moebius_task,001,moebius,22,m,16,1,ari e sara,2024-01-19_13h33.18.738,CPO_EEG,2022.2.1,59.87640312866482,
stimoli/01.full/M02-Fear-Face Forward.mp4,fear,full,maschio,3,6,720,576,31,,,,,,,,,,,,,,,,,0,0,0,0,,,,,,,,,0,6,6,30,,,0.13858720000007452,479.43920160000016,0.14606750000029933,0.0006265000001803855,0.0006265000001803855,485.4135534000002,485.4135534000002,0.016500600000199483,-102.0,-154.0,1,0,0,10.356030100000226,'click_1',1.250000013897079e-05,495.7700417000001,0.015477300000384275,,496.2717786000003,496.2717786000003,496.2717786000003,0.001274200000352721,0.01726650000000518,0.001274200000352721,,,,,19.0,-77.0,1,0,0,8.030988400000297,'click_2',1.3699999726668466e-05,0.015663799999856565,,,,,,14_moebius_task,001,moebius,22,m,16,1,ari e sara,2024-01-19_13h33.18.738,CPO_EEG,2022.2.1,59.87640312866482,
stimoli/01.full/M02-Anger-Face Forward.mp4,angry,full,maschio,3,6,720,576,35,,,,,,,,,,,,,,,,,0,0,0,0,,,,,,,,,0,7,7,34,,,0.13937639999994644,505.93427999999994,0.14663389999986975,0.0009678000001258624,0.0009678000001258624,511.9081827,511.9081827,0.016326200000094104,-18.0,99.0,1,0,0,12.012856900000315,'click_1',1.3700000181415817e-05,523.9219048,0.015415800000027957,,524.4236126000001,524.4236126000001,524.4236126000001,0.0011322000000291155,0.017141499999979715,0.0011322000000291155,,,,,0.0,0.0,1,0,0,1.5723363000001882,'click_2',1.4599999758502236e-05,0.015480399999887595,,,,,,14_moebius_task,001,moebius,22,m,16,1,ari e sara,2024-01-19_13h33.18.738,CPO_EEG,2022.2.1,59.87640312866482,
stimoli/01.full/F01-Fear-Face Forward.mp4,fear,full,femmina,1,6,720,576,29,,,,,,,,,,,,,,,,,0,0,0,0,,,,,,,,,0,8,8,28,,,0.13853969999991023,527.6266871000003,0.14589959999966595,0.0007006999999248364,0.0007006999999248364,533.6016529000003,533.6016529000003,0.016515799999979208,-93.0,-139.0,1,0,0,18.118930300000102,'click_1',1.4699999610456871e-05,551.7216613,0.016031199999815726,,552.2228279000001,552.2228279000001,552.2228279000001,0.0013678999998774088,0.017191599999932805,0.0013678999998774088,,,,,-63.0,-12.0,1,0,0,18.167507099999966,'click_2',1.3200000012147939e-05,0.015448399999968387,,,,,,14_moebius_task,001,moebius,22,m,16,1,ari e sara,2024-01-19_13h33.18.738,CPO_EEG,2022.2.1,59.87640312866482,
stimoli/02.subtle/JM1_Disgust.mp4,disgusted,subtle,maschio,7,10,1646,926,11,,,,,,,,,,,,,,,,,0,0,0,0,,,,,,,,,0,9,9,10,,,0.13906189999988783,572.0217837,0.14645139999993262,0.0007495999998354819,0.0007495999998354819,582.3951867999999,582.3951867999999,0.016374899999846093,-84.0,55.0,1,0,0,9.401313599999867,'click_1',1.4000000192027073e-05,591.7974113,0.015706600000157778,,592.2992919000003,592.2992919000003,592.2992919000003,0.0016268000003947236,0.0176342000004297,0.0016268000003947236,,,,,-13.0,-63.0,1,0,0,3.2457947000002605,'click_2',1.339999971605721e-05,0.015482699999665783,,,,,,14_moebius_task,001,moebius,22,m,16,1,ari e sara,2024-01-19_13h33.18.738,CPO_EEG,2022.2.1,59.87640312866482,
stimoli/01.full/F01-Joy-Face Forward.mp4,happy,full,femmina,1,6,720,576,41,,,,,,,,,,,,,,,,,0,0,0,0,,,,,,,,,0,10,10,40,,,0.1379223999997521,597.1753799000003,0.14543639999965308,0.0007210999997369072,0.0007210999997369072,603.1506665000002,603.1506665000002,0.016309499999806576,164.0,35.0,1,0,0,17.868853299999955,'click_1',1.3000000308238668e-05,621.0202593000004,0.015565400000014051,,621.5223611000001,621.5223611000001,621.5223611000001,0.0016579000002820976,0.017679400000361056,0.0016579000002820976,,,,,120.0,80.0,1,0,0,4.115434499999992,'click_2',1.3500000022759195e-05,0.015489800000068499,,,,,,14_moebius_task,001,moebius,22,m,16,1,ari e sara,2024-01-19_13h33.18.738,CPO_EEG,2022.2.1,59.87640312866482,
stimoli/01.full/F03-Neutral-Face Forward.mp4,neutral,full,femmina,2,6,720,576,54,,,,,,,,,,,,,,,,,0,0,0,0,,,,,,,,,0,11,11,53,,,0.13823760000013863,627.2682062000003,0.14560490000030768,0.0006891999996696541,0.0006891999996696541,633.2433851000001,633.2433851000001,0.01643229999990581,-63.0,-15.0,1,0,0,12.748888399999942,'click_1',1.3299999864102574e-05,645.9929855,0.01563239999995858,,646.4949972,646.4949972,646.4949972,0.001703899999938585,0.017649700000220037,0.001703899999938585,,,,,-34.0,-54.0,1,0,0,1.5729129999999714,'click_2',1.3500000022759195e-05,0.015563399999791727,,,,,,14_moebius_task,001,moebius,22,m,16,1,ari e sara,2024-01-19_13h33.18.738,CPO_EEG,2022.2.1,59.87640312866482,
stimoli/01.full/M03-Surprise-Face Forward.mp4,surprised,full,maschio,4,6,720,576,52,,,,,,,,,,,,,,,,,0,0,0,0,,,,,,,,,0,12,12,51,,,0.13761780000004364,649.6977190000002,0.14501900000004753,0.0006810999998378975,0.0006810999998378975,655.6744689000002,655.6744689000002,0.016527299999779643,27.0,-142.0,1,0,0,8.364522800000032,'click_1',1.3200000012147939e-05,664.0395495000002,0.015602799999669514,,664.5412716999999,664.5412716999999,664.5412716999999,0.0015321999999287073,0.017327199999726872,0.0015321999999287073,,,,,2.0,3.0,1,0,0,8.34905260000005,'click_2',1.2800000149582047e-05,0.015478600000278675,,,,,,14_moebius_task,001,moebius,22,m,16,1,ari e sara,2024-01-19_13h33.18.738,CPO_EEG,2022.2.1,59.87640312866482,
stimoli/01.full/F03-Surprise-Face Forward.mp4,surprised,full,femmina,2,6,720,576,50,,,,,,,,,,,,,,,,,0,0,0,0,,,,,,,,,0,13,13,49,,,0.13754880000033154,674.5203002000003,0.14493949999996403,0.0007301000000552449,0.0007301000000552449,680.4970128,680.4970128,0.016469899999719928,31.0,-136.0,1,0,0,16.578145499999664,'click_1',1.3200000012147939e-05,697.0759072999999,0.015707000000020344,,697.5778632000001,697.5778632000001,697.5778632000001,0.0016983000000436732,0.017700800000056915,0.0016983000000436732,,,,,0.0,-1.0,1,0,0,5.486836599999606,'click_2',1.2799999694834696e-05,0.015567599999940285,,,,,,14_moebius_task,001,moebius,22,m,16,1,ari e sara,2024-01-19_13h33.18.738,CPO_EEG,2022.2.1,59.87640312866482,
stimoli/02.subtle/JM1_Surprise.mp4,surprised,subtle,maschio,7,10,1646,926,23,,,,,,,,,,,,,,,,,0,0,0,0,,,,,,,,,0,14,14,22,,,0.14375079999990703,704.7005942000001,0.15100170000005164,0.0007113000001481851,0.0007113000001481851,715.087149,715.087149,0.016506200000094395,69.0,-101.0,1,0,0,16.549102999999832,'click_1',1.2900000001536682e-05,731.6368500000003,0.015582200000153534,,732.1387354000003,732.1387354000003,732.1387354000003,0.0015197000002444838,0.017485800000031304,0.0015197000002444838,,,,,16.0,-64.0,1,0,0,5.319650599999932,'click_2',1.4100000043981709e-05,0.015432099999998172,,,,,,14_moebius_task,001,moebius,22,m,16,1,ari e sara,2024-01-19_13h33.18.738,CPO_EEG,2022.2.1,59.87640312866482,
stimoli/01.full/F01-Sadness-Face Forward.mp4,sad,full,femmina,1,6,720,576,45,,,,,,,,,,,,,,,,,0,0,0,0,,,,,,,,,0,15,15,44,,,0.13711719999992056,739.0879017000002,0.14469559999997728,0.0006792999997742299,0.0006792999997742299,745.0642001000001,745.0642001000001,0.01647929999990083,-29.0,-166.0,1,0,0,10.573330900000201,'click_1',1.2900000001536682e-05,755.6381307000001,0.015604700000039884,,756.1400916000002,756.1400916000002,756.1400916000002,0.0017057000000022526,0.017575700000179495,0.0017057000000022526,,,,,1.0,0.0,1,0,0,1.6389161000001877,'click_2',1.3700000181415817e-05,0.015484300000025542,,,,,,14_moebius_task,001,moebius,22,m,16,1,ari e sara,2024-01-19_13h33.18.738,CPO_EEG,2022.2.1,59.87640312866482,
stimoli/02.subtle/JF1_Happiness.mp4,happy,subtle,femmina,5,10,1646,926,13,,,,,,,,,,,,,,,,,0,0,0,0,,,,,,,,,0,16,16,12,,,0.1522208999999748,759.4235136000002,0.15959190000012313,0.0006941999999980908,0.0006941999999980908,770.2024727000003,770.2024727000003,0.016356700000415003,142.0,96.0,1,0,0,17.401485200000025,'click_1',1.4199999895936344e-05,787.6046117000001,0.015491799999836076,,788.1063663,788.1063663,788.1063663,0.0013189000001148088,0.017241999999896507,0.0013189000001148088,,,,,99.0,17.0,1,0,0,3.5796119999999974,'click_2',1.3700000181415817e-05,0.01569370000015624,,,,,,14_moebius_task,001,moebius,22,m,16,1,ari e sara,2024-01-19_13h33.18.738,CPO_EEG,2022.2.1,59.87640312866482,
stimoli/01.full/F03-Sadness-Face Forward.mp4,sad,full,femmina,2,6,720,576,46,,,,,,,,,,,,,,,,,0,0,0,0,,,,,,,,,0,17,17,45,,,0.13762420000011844,793.3157403,0.14486549999992349,0.0006802999996580184,0.0006802999996580184,799.2918319,799.2918319,0.016530500000044412,-31.0,159.0,1,0,0,11.376367700000173,'click_1',1.340000017080456e-05,810.6686723000003,0.015547200000128214,,811.1706722000004,811.1706722000004,811.1706722000004,0.001670900000135589,0.0175533000001451,0.001670900000135589,,,,,-19.0,-99.0,1,0,0,8.096772700000201,'click_2',1.340000017080456e-05,0.015463400000044203,,,,,,14_moebius_task,001,moebius,22,m,16,1,ari e sara,2024-01-19_13h33.18.738,CPO_EEG,2022.2.1,59.87640312866482,
stimoli/02.subtle/JF1_Sadness.mp4,sad,subtle,femmina,5,10,1646,926,17,,,,,,,,,,,,,,,,,0,0,0,0,,,,,,,,,0,18,18,16,,,0.1407429000000775,820.9004420000001,0.14806980000003023,0.0009275000002162415,0.0009275000002162415,831.6741611000002,831.6741611000002,0.01643629999989571,0.0,1.0,1,0,0,16.564427600000272,'click_1',1.3700000181415817e-05,848.2394144,0.015481400000226131,,848.7411821999999,848.7411821999999,848.7411821999999,0.001273599999876751,0.017241500000181986,0.001273599999876751,,,,,-13.0,-64.0,1,0,0,7.577831199999764,'click_2',1.44999999065476e-05,0.015677800000048592,,,,,,14_moebius_task,001,moebius,22,m,16,1,ari e sara,2024-01-19_13h33.18.738,CPO_EEG,2022.2.1,59.87640312866482,
stimoli/02.subtle/JF2_Disgust.mp4,disgusted,subtle,femmina,6,10,1646,926,10,,,,,,,,,,,,,,,,,0,0,0,0,,,,,,,,,0,19,19,9,,,0.13991459999988365,857.9511547000002,0.14717019999989134,0.0006903000003148918,0.0006903000003148918,868.3240992000001,868.3240992000001,0.01648700000032477,,,,,,,,1.2999999853491317e-05,888.3350823000001,0.01587279999966995,,888.8368912999999,888.8368912999999,888.8368912999999,0.00178860000005443,0.01770299999998315,0.00178860000005443,,,,,-80.0,121.0,1,0,0,5.320429200000035,'click_2',1.4000000192027073e-05,0.01551740000013524,,,20.010808200000156,888.3350823000001,888.3350823000001,14_moebius_task,001,moebius,22,m,16,1,ari e sara,2024-01-19_13h33.18.738,CPO_EEG,2022.2.1,59.87640312866482,
stimoli/01.full/F01-Surprise-Face Forward.mp4,surprised,full,femmina,1,6,720,576,49,,,,,,,,,,,,,,,,,0,0,0,0,,,,,,,,,0,20,20,48,,,0.13864950000015597,895.7884319,0.1461895000002187,0.0007036000001789944,0.0007036000001789944,901.7639308000003,901.7639308000003,0.016344600000138598,34.0,-162.0,1,0,0,4.8855797999999595,'click_1',1.4100000043981709e-05,906.6501355,0.0153653000002123,,907.1521289000002,907.1521289000002,907.1521289000002,0.001333600000180013,0.017380100000082166,0.001333600000180013,,,,,3.0,1.0,1,0,0,2.074937100000625,'click_2',1.4100000043981709e-05,0.015479300000151852,,,,,,14_moebius_task,001,moebius,22,m,16,1,ari e sara,2024-01-19_13h33.18.738,CPO_EEG,2022.2.1,59.87640312866482,
stimoli/01.full/M02-Neutral-Face Forward.mp4,neutral,full,maschio,3,6,720,576,55,,,,,,,,,,,,,,,,,0,0,0,0,,,,,,,,,0,21,21,54,,,0.14600330000030226,910.8653243000003,0.15347150000070542,0.0006802999996580184,0.0006802999996580184,916.8509294,916.8509294,0.016452900000331283,86.0,-57.0,1,0,0,9.55225430000064,'click_1',1.359999987471383e-05,926.4038787000004,0.015557799999442068,,926.9054656000003,926.9054656000003,926.9054656000003,0.0012606000000232598,0.01718949999940378,0.0012606000000232598,,,,,4.0,4.0,1,0,0,5.905497800000376,'click_2',1.3600000784208532e-05,0.015569100000902836,,,,,,14_moebius_task,001,moebius,22,m,16,1,ari e sara,2024-01-19_13h33.18.738,CPO_EEG,2022.2.1,59.87640312866482,
stimoli/02.subtle/JM1_Anger.mp4,angry,subtle,maschio,7,10,1646,926,7,,,,,,,,,,,,,,,,,0,0,0,0,,,,,,,,,0,22,22,6,,,0.14755910000076256,934.4510815999997,0.15522950000013225,0.0007676000004721573,0.0007676000004721573,944.8341937999999,944.8341937999999,0.016341600000487233,-15.0,99.0,1,0,0,7.243811800000003,'click_1',1.2999999853491317e-05,952.0790377999997,0.015812499999810825,,952.5809122000005,952.5809122000005,952.5809122000005,0.0018676999998206156,0.01767459999973653,0.0018676999998206156,,,,,-55.0,81.0,1,0,0,1.7397182999993674,'click_2',1.3099999705445953e-05,0.015435999999681371,,,,,,14_moebius_task,001,moebius,22,m,16,1,ari e sara,2024-01-19_13h33.18.738,CPO_EEG,2022.2.1,59.87640312866482,
stimoli/01.full/F03-Joy-Face Forward.mp4,happy,full,femmina,2,6,720,576,42,,,,,,,,,,,,,,,,,0,0,0,0,,,,,,,,,0,23,23,41,,,0.13655050000033953,955.9495603,0.1438847999997961,0.0007150000001274748,0.0007150000001274748,961.9255626999998,961.9255626999998,0.016328400000020338,142.0,93.0,1,0,0,6.172642599999563,'click_1',1.3299999409355223e-05,968.0990563999999,0.01569389999986015,,968.6007322,968.6007322,968.6007322,0.0014635999996244209,0.017351599999528844,0.0014635999996244209,,,,,55.0,-37.0,1,0,0,4.70105599999988,'click_2',1.359999987471383e-05,0.01573350000035134,,,,,,14_moebius_task,001,moebius,22,m,16,1,ari e sara,2024-01-19_13h33.18.738,CPO_EEG,2022.2.1,59.87640312866482,
stimoli/01.full/F03-Anger-Face Forward.mp4,angry,full,femmina,2,6,720,576,34,,,,,,,,,,,,,,,,,0,0,0,0,,,,,,,,,0,24,24,33,,,0.13829960000020947,974.9323718999999,0.14567619999979797,0.0006733000000167522,0.0006733000000167522,980.9081790000005,980.9081790000005,0.01642329999958747,-29.0,144.0,1,0,0,10.2741888999999,'click_1',1.5299999176932033e-05,991.1827858000001,0.015201100000012957,,991.6848743000005,991.6848743000005,991.6848743000005,0.0013641999994433718,0.017330099999526283,0.0013641999994433718,,,,,1.0,4.0,1,0,0,1.9400412999993932,'click_2',1.3900000340072438e-05,0.01558740000018588,,,,,,14_moebius_task,001,moebius,22,m,16,1,ari e sara,2024-01-19_13h33.18.738,CPO_EEG,2022.2.1,59.87640312866482,
stimoli/02.subtle/JM2_Disgust.mp4,disgusted,subtle,maschio,8,10,1646,926,12,,,,,,,,,,,,,,,,,0,0,0,0,,,,,,,,,0,25,25,11,,,0.1390865000003032,995.2562875999997,0.14648510000006354,0.0007107999999789172,0.0007107999999789172,1005.8304462000001,1005.8304462000001,0.016426600000158942,-79.0,123.0,1,0,0,8.64842729999964,'click_1',1.340000017080456e-05,1014.4794152999998,0.015490300000237767,,1014.9812944,1014.9812944,1014.9812944,0.0013504000007742434,0.017387000000780972,0.0013504000007742434,,,,,11.0,-63.0,1,0,0,3.831238300000223,'click_2',1.4299999747890979e-05,0.015443600000253355,,,,,,14_moebius_task,001,moebius,22,m,16,1,ari e sara,2024-01-19_13h33.18.738,CPO_EEG,2022.2.1,59.87640312866482,
stimoli/02.subtle/JM1_Happiness.mp4,happy,subtle,maschio,7,10,1646,926,15,,,,,,,,,,,,,,,,,0,0,0,0,,,,,,,,,0,26,26,14,,,0.13790609999978187,1020.4425307000006,0.14519819999986794,0.0006916000002092915,0.0006916000002092915,1030.8175723999998,1030.8175723999998,0.01653569999962201,57.0,33.0,1,0,0,11.594830099999854,'click_1',1.2900000001536682e-05,1042.4131025000002,0.01568570000017644,,1042.9148212000005,1042.9148212000005,1042.9148212000005,0.001573399999870162,0.017436300000554183,0.001573399999870162,,,,,-62.0,12.0,1,0,0,8.767400200000338,'click_2',1.3699999726668466e-05,0.015426599999955215,,,,,,14_moebius_task,001,moebius,22,m,16,1,ari e sara,2024-01-19_13h33.18.738,CPO_EEG,2022.2.1,59.87640312866482,
stimoli/01.full/M02-Surprise-Face Forward.mp4,surprised,full,maschio,3,6,720,576,51,,,,,,,,,,,,,,,,,0,0,0,0,,,,,,,,,0,27,27,50,,,0.13705339999978605,1053.3118369999997,0.14464229999975942,0.000847599999360682,0.000847599999360682,1059.2880853000001,1059.2880853000001,0.016497699999490578,32.0,-162.0,1,0,0,8.599439999999959,'click_1',1.340000017080456e-05,1067.8885470999999,0.01583070000015141,,1068.3903932999997,1068.3903932999997,1068.3903932999997,0.0018383999995421618,0.017697100000077626,0.0018383999995421618,,,,,66.0,46.0,1,0,0,6.8594419999999445,'click_2',1.3199999557400588e-05,0.015435399999660149,,,,,,14_moebius_task,001,moebius,22,m,16,1,ari e sara,2024-01-19_13h33.18.738,CPO_EEG,2022.2.1,59.87640312866482,
stimoli/02.subtle/JM2_Surprise.mp4,surprised,subtle,maschio,8,10,1646,926,24,,,,,,,,,,,,,,,,,0,0,0,0,,,,,,,,,0,28,28,23,,,0.13899749999927735,1076.8809779999997,0.14612599999964004,0.0006809999995311955,0.0006809999995311955,1087.8232654999997,1087.8232654999997,0.016400200000134646,35.0,-164.0,1,0,0,10.973937700000533,'click_1',1.4899999769113492e-05,1098.7978641000004,0.015542999999524909,,1099.2996491,1099.2996491,1099.2996491,0.0013719999997192645,0.017353299999740557,0.0013719999997192645,,,,,65.0,-11.0,1,0,0,7.2604246000000785,'click_2',1.3500000022759195e-05,0.015582499999254651,,,,,,14_moebius_task,001,moebius,22,m,16,1,ari e sara,2024-01-19_13h33.18.738,CPO_EEG,2022.2.1,59.87640312866482,
stimoli/01.full/M03-Fear-Face Forward.mp4,fear,full,maschio,4,6,720,576,32,,,,,,,,,,,,,,,,,0,0,0,0,,,,,,,,,0,29,29,31,,,0.13724399999955494,1108.1896315,0.14473399999951653,0.0008745000004637404,0.0008745000004637404,1114.1647483000002,1114.1647483000002,0.01633060000040132,-111.0,-167.0,1,0,0,8.715913899999578,'click_1',1.340000017080456e-05,1122.8816354000005,0.01564169999983278,,1123.3835998,1123.3835998,1123.3835998,0.0016273000001092441,0.017600099999981467,0.0016273000001092441,,,,,0.0,0.0,1,0,0,2.1906387999997605,'click_2',1.2900000001536682e-05,0.015604799999891839,,,,,,14_moebius_task,001,moebius,22,m,16,1,ari e sara,2024-01-19_13h33.18.738,CPO_EEG,2022.2.1,59.87640312866482,
stimoli/02.subtle/JM2_Anger.mp4,angry,subtle,maschio,8,10,1646,926,8,,,,,,,,,,,,,,,,,0,0,0,0,,,,,,,,,0,30,30,7,,,0.13930679999975837,1127.2055826,0.14650209999945218,0.0006442000003517023,0.0006442000003517023,1138.1478843999998,1138.1478843999998,0.016455599999972037,-40.0,199.0,1,0,0,6.641101700000036,'click_1',1.359999987471383e-05,1144.7893811999998,0.015403899999910209,,1145.2915008000004,1145.2915008000004,1145.2915008000004,0.0015753999996377388,0.017545599999721162,0.0015753999996377388,,,,,-36.0,55.0,1,0,0,3.3955368000006274,'click_2',1.3199999557400588e-05,0.01576649999969959,,,,,,14_moebius_task,001,moebius,22,m,16,1,ari e sara,2024-01-19_13h33.18.738,CPO_EEG,2022.2.1,59.87640312866482,
stimoli/02.subtle/JF2_Surprise.mp4,surprised,subtle,femmina,6,10,1646,926,22,,,,,,,,,,,,,,,,,0,0,0,0,,,,,,,,,0,31,31,21,,,0.1450169999998252,1150.3243312999998,0.15239550000023883,0.0007116999995560036,0.0007116999995560036,1160.7092574000003,1160.7092574000003,0.016372999999475724,25.0,-116.0,1,0,0,8.364774100000432,'click_1',1.320000046689529e-05,1169.0748970999998,0.015669299999899522,,1169.5768521000005,1169.5768521000005,1169.5768521000005,0.0015842000002521672,0.017607599999792,0.0015842000002521672,,,,,-52.0,34.0,1,0,0,6.808668900000157,'click_2',1.3700000636163168e-05,0.015709100000094622,,,,,,14_moebius_task,001,moebius,22,m,16,1,ari e sara,2024-01-19_13h33.18.738,CPO_EEG,2022.2.1,59.87640312866482,
stimoli/02.subtle/JF1_Fear.mp4,fear,subtle,femmina,5,10,1646,926,1,,,,,,,,,,,,,,,,,0,0,0,0,,,,,,,,,0,32,32,0,,,0.1452433000004021,1178.0228263000004,0.1525446000005104,0.0007424000004903064,0.0007424000004903064,1188.8100212000004,1188.8100212000004,0.01650080000035814,5.0,1.0,1,0,0,13.182802100000117,'click_1',1.4899999769113492e-05,1201.9933602000006,0.01544709999961924,,1202.4951402000002,1202.4951402000002,1202.4951402000002,0.0013445999993564328,0.017209399999956076,0.0013445999993564328,,,,,-62.0,-12.0,1,0,0,4.282436999999845,'click_2',1.559999964229064e-05,0.015537699999185861,,,,,,14_moebius_task,001,moebius,22,m,16,1,ari e sara,2024-01-19_13h33.18.738,CPO_EEG,2022.2.1,59.87640312866482,
stimoli/01.full/M02-Joy-Face Forward.mp4,happy,full,maschio,3,6,720,576,43,,,,,,,,,,,,,,,,,0,0,0,0,,,,,,,,,0,33,33,42,,,0.13730669999949896,1208.4071782000005,0.14469159999953263,0.0007122999995772261,0.0007122999995772261,1214.3820449,1214.3820449,0.01659399999971356,118.0,24.0,1,0,0,11.644582199999604,'click_1',1.3800000488117803e-05,1226.0271465,0.015603400000145484,,1226.5291526000005,1226.5291526000005,1226.5291526000005,0.0017566000005899696,0.0176342000004297,0.0017566000005899696,,,,,100.0,67.0,1,0,0,3.696709299999384,'click_2',1.4199999895936344e-05,0.01565850000042701,,,,,,14_moebius_task,001,moebius,22,m,16,1,ari e sara,2024-01-19_13h33.18.738,CPO_EEG,2022.2.1,59.87640312866482,
stimoli/02.subtle/JM1_Fear.mp4,fear,subtle,maschio,7,10,1646,926,3,,,,,,,,,,,,,,,,,0,0,0,0,,,,,,,,,0,34,34,2,,,0.13957320000008622,1231.8577222999998,0.1469336000000112,0.0007203000004665228,0.0007203000004665228,1242.2320286,1242.2320286,0.016309000000546803,28.0,-139.0,1,0,0,10.43983659999958,'click_1',1.3399999261309858e-05,1252.6725870000005,0.015553399999589601,,1253.1745209000005,1253.1745209000005,1253.1745209000005,0.0014780999999857158,0.017468199999711942,0.0014780999999857158,,,,,-48.0,31.0,1,0,0,6.790953300000183,'click_2',2.480000057403231e-05,0.015613499999744818,,,,,,14_moebius_task,001,moebius,22,m,16,1,ari e sara,2024-01-19_13h33.18.738,CPO_EEG,2022.2.1,59.87640312866482,
stimoli/01.full/F01-Anger-Face Forward.mp4,angry,full,femmina,1,6,720,576,33,,,,,,,,,,,,,,,,,0,0,0,0,,,,,,,,,0,35,35,32,,,0.13893879999977798,1261.5966192,0.14630200000010518,0.0007240999993882724,0.0007240999993882724,1267.5708976,1267.5708976,0.017657299999882525,-40.0,201.0,1,0,0,12.49770769999941,'click_1',1.340000017080456e-05,1280.0682459000004,0.015722699999969336,,1280.5700941999999,1280.5700941999999,1280.5700941999999,0.0015911000000414788,0.017600999999558553,0.0015911000000414788,,,,,1.0,-1.0,1,0,0,2.1410343999996257,'click_2',1.3500000022759195e-05,0.01567109999996319,,,,,,14_moebius_task,001,moebius,22,m,16,1,ari e sara,2024-01-19_13h33.18.738,CPO_EEG,2022.2.1,59.87640312866482,
stimoli/01.full/M03-Anger-Face Forward.mp4,angry,full,maschio,4,6,720,576,36,,,,,,,,,,,,,,,,,0,0,0,0,,,,,,,,,0,36,36,35,,,0.1377582999994047,1284.3409757000004,0.14507139999932406,0.0006459000005634152,0.0006459000005634152,1290.3155148,1290.3155148,0.01643930000045657,-28.0,141.0,1,0,0,4.014594399999623,'click_1',1.340000017080456e-05,1294.3306797,0.015538999999989755,,1294.8324429999998,1294.8324429999998,1294.8324429999998,0.0014258999999583466,0.017307300000538817,0.0014258999999583466,,,,,1.0,1.0,1,0,0,1.6228892999997697,'click_2',1.340000017080456e-05,0.015397299999676761,,,,,,14_moebius_task,001,moebius,22,m,16,1,ari e sara,2024-01-19_13h33.18.738,CPO_EEG,2022.2.1,59.87640312866482,
stimoli/02.subtle/JF1_Disgust.mp4,disgusted,subtle,femmina,5,10,1646,926,9,,,,,,,,,,,,,,,,,0,0,0,0,,,,,,,,,0,37,37,8,,,0.13979219999964698,1298.0868776000002,0.1466299000003346,0.0007234999993670499,0.0007234999993670499,1308.8606866000005,1308.8606866000005,0.01653379999970639,-144.0,95.0,1,0,0,6.876095499999792,'click_1',1.3199999557400588e-05,1315.7373979999998,0.015635099999599333,,1316.2392132999998,1316.2392132999998,1316.2392132999998,0.0014899999996487168,0.01747979999981908,0.0014899999996487168,,,,,-11.0,-63.0,1,0,0,3.245605699999942,'click_2',1.3099999705445953e-05,0.015680999999858614,,,,,,14_moebius_task,001,moebius,22,m,16,1,ari e sara,2024-01-19_13h33.18.738,CPO_EEG,2022.2.1,59.87640312866482,
stimoli/02.subtle/JF2_Anger.mp4,angry,subtle,femmina,6,9,1646,926,6,,,,,,,,,,,,,,,,,0,0,0,0,,,,,,,,,0,38,38,5,,,0.14192410000032396,1321.1188621000006,0.14924119999977847,0.0007019000004220288,0.0007019000004220288,1330.570381,1330.570381,0.016496400000505673,-28.0,142.0,1,0,0,4.9347797000000355,'click_1',1.2999999853491317e-05,1335.5058175999998,0.01565559999926336,,1336.0074953999997,1336.0074953999997,1336.0074953999997,0.0015333999999711523,0.017349099999592,0.0015333999999711523,,,,,-9.0,-68.0,1,0,0,1.7062155999992683,'click_2',1.4000000192027073e-05,0.015463799999452021,,,,,,14_moebius_task,001,moebius,22,m,16,1,ari e sara,2024-01-19_13h33.18.738,CPO_EEG,2022.2.1,59.87640312866482,
stimoli/01.full/F01-Disgust-Face Forward.mp4,disgusted,full,femmina,1,6,720,576,37,,,,,,,,,,,,,,,,,0,0,0,0,,,,,,,,,0,39,39,36,,,0.1370123999995485,1339.3432411999997,0.1445077999997011,0.0006877999994685524,0.0006877999994685524,1345.3195382,1345.3195382,0.016313899999659043,-122.0,81.0,1,0,0,6.072258899999724,'click_1',1.2999999853491317e-05,1351.3924165000003,0.015490300000237767,,1351.8945848999997,1351.8945848999997,1351.8945848999997,0.0015481999998883111,0.017647200000283192,0.0015481999998883111,,,,,-16.0,100.0,1,0,0,2.5596120000000155,'click_2',1.2800000149582047e-05,0.015683000000535685,,,,,,14_moebius_task,001,moebius,22,m,16,1,ari e sara,2024-01-19_13h33.18.738,CPO_EEG,2022.2.1,59.87640312866482,
stimoli/02.subtle/JM2_Happiness.mp4,happy,subtle,maschio,8,10,1646,926,16,,,,,,,,,,,,,,,,,0,0,0,0,,,,,,,,,0,40,40,15,,,0.14764459999969404,1356.0938689,0.15500359999987268,0.0007342999997490551,0.0007342999997490551,1366.6791709000004,1366.6791709000004,0.016327999999703025,65.0,46.0,1,0,0,6.776366600000074,'click_1',1.3099999705445953e-05,1373.4552641000005,0.014513999999508087,1373.9571154999999,1373.9571154999999,1373.9571154999999,1373.9571154999999,0.0007671000003028894,0.01640080000015587,0.0007671000003028894,,,,,0.0,0.0,1,0,0,7.024822500000482,'click_2',1.3299999409355223e-05,0.01584790000015346,,,,,,14_moebius_task,001,moebius,22,m,16,1,ari e sara,2024-01-19_13h33.18.738,CPO_EEG,2022.2.1,59.87640312866482,
stimoli/02.subtle/JM2_Fear.mp4,fear,subtle,maschio,8,10,1646,926,4,,,,,,,,,,,,,,,,,0,0,0,0,,,,,,,,,0,41,41,3,,,0.13863320000018575,1382.6126648000004,0.14554140000018378,0.0006545999995068996,0.0006545999995068996,1393.1873148999998,1393.1873148999998,0.016430599999694095,-28.0,-138.0,1,0,0,9.183950599999662,'click_1',1.359999987471383e-05,1402.3719516000006,0.015655499999411404,,1402.8739405000001,1402.8739405000001,1402.8739405000001,0.0017220999998244224,0.017659199999798147,0.0017220999998244224,,,,,-65.0,-13.0,1,0,0,17.95270419999997,'click_2',1.4899999769113492e-05,0.015608200000315264,,,,,,14_moebius_task,001,moebius,22,m,16,1,ari e sara,2024-01-19_13h33.18.738,CPO_EEG,2022.2.1,59.87640312866482,
stimoli/02.subtle/JF2_Fear.mp4,fear,subtle,femmina,6,10,1646,926,2,,,,,,,,,,,,,,,,,0,0,0,0,,,,,,,,,0,42,42,1,,,0.1406181000002107,1422.4594259,0.14794739999979356,0.0007378999998763902,0.0007378999998763902,1432.8308219000005,1432.8308219000005,0.01654170000074373,-10.0,65.0,1,0,0,8.31384160000016,'click_1',1.4100000043981709e-05,1441.1452677000002,0.015555299999505223,,1441.6472375999997,1441.6472375999997,1441.6472375999997,0.0014420999996218598,0.017523099999380065,0.0014420999996218598,,,,,-35.0,52.0,1,0,0,2.743258600000445,'click_2',1.4100000043981709e-05,0.015843600000152946,,,,,,14_moebius_task,001,moebius,22,m,16,1,ari e sara,2024-01-19_13h33.18.738,CPO_EEG,2022.2.1,59.87640312866482,
stimoli/01.full/M03-Joy-Face Forward.mp4,happy,full,maschio,4,6,720,576,44,,,,,,,,,,,,,,,,,0,0,0,0,,,,,,,,,0,43,43,43,,,0.13750610000079178,1446.0200727000006,0.14487450000069657,0.0006964000003790716,0.0006964000003790716,1451.9959251000005,1451.9959251000005,0.016399600000113423,147.0,97.0,1,0,0,4.885495100000298,'click_1',1.3699999726668466e-05,1456.8819291000004,0.015277099999366328,,1457.3836130000004,1457.3836130000004,1457.3836130000004,0.000943399999414396,0.01699209999969753,0.000943399999414396,,,,,45.0,62.0,1,0,0,8.414073899999494,'click_2',1.3699999726668466e-05,0.01582620000044699,,,,,,14_moebius_task,001,moebius,22,m,16,1,ari e sara,2024-01-19_13h33.18.738,CPO_EEG,2022.2.1,59.87640312866482,
stimoli/02.subtle/JF2_Sadness.mp4,sad,subtle,femmina,6,8,1646,926,18,,,,,,,,,,,,,,,,,0,0,0,0,,,,,,,,,0,44,44,17,,,0.14164880000043922,1467.4313966000004,0.14893949999986944,0.0007360999998127227,0.0007360999998127227,1475.7789398999998,1475.7789398999998,0.016304300000228977,-29.0,-140.0,1,0,0,7.66218949999984,'click_1',1.2900000001536682e-05,1483.4419778000006,0.01558279999972001,,1483.9440447000002,1483.9440447000002,1483.9440447000002,0.0018096999992849305,0.0176499999997759,0.0018096999992849305,,,,,-32.0,51.0,1,0,0,2.0405430999999226,'click_2',1.3500000022759195e-05,0.015593799999805924,,,,,,14_moebius_task,001,moebius,22,m,16,1,ari e sara,2024-01-19_13h33.18.738,CPO_EEG,2022.2.1,59.87640312866482,
stimoli/02.subtle/JF1_Surprise.mp4,surprised,subtle,femmina,5,10,1646,926,21,,,,,,,,,,,,,,,,,0,0,0,0,,,,,,,,,0,45,45,20,,,0.14061219999985042,1487.6174953000004,0.14794309999979305,0.0007355000007009949,0.0007355000007009949,1498.3905098,1498.3905098,0.01650300000073912,28.0,-143.0,1,0,0,7.71225510000022,'click_1',1.3099999705445953e-05,1506.1036545000002,0.01585929999964719,,1506.6054570000001,1506.6054570000001,1506.6054570000001,0.0018629999995027902,0.017657800000051793,0.0018629999995027902,,,,,69.0,-98.0,1,0,0,2.2416433999997025,'click_2',1.320000046689529e-05,0.015545700000075158,,,,,,14_moebius_task,001,moebius,22,m,16,1,ari e sara,2024-01-19_13h33.18.738,CPO_EEG,2022.2.1,59.87640312866482,
stimoli/01.full/F03-Fear-Face Forward.mp4,fear,full,femmina,2,6,720,576,30,,,,,,,,,,,,,,,,,0,0,0,0,,,,,,,,,0,46,46,29,,,0.13792210000065097,1510.4774927000003,0.14533120000032795,0.0006972000001042034,0.0006972000001042034,1516.4539537000005,1516.4539537000005,0.01650900000004185,35.0,-162.0,1,0,0,10.037781899999572,'click_1',1.3099999705445953e-05,1526.4921150000005,0.015443899999809219,,1526.9939102000003,1526.9939102000003,1526.9939102000003,0.0014125999996394967,0.01724689999991824,0.0014125999996394967,,,,,-93.0,-140.0,1,0,0,3.3622770000001765,'click_2',1.340000017080456e-05,0.015346199999839882,,,,,,14_moebius_task,001,moebius,22,m,16,1,ari e sara,2024-01-19_13h33.18.738,CPO_EEG,2022.2.1,59.87640312866482,
stimoli/02.subtle/JF2_Neutral.mp4,neutral,subtle,femmina,6,9,1646,926,26,,,,,,,,,,,,,,,,,0,0,0,0,,,,,,,,,0,47,47,25,,,0.14275439999983064,1531.9915197000005,0.15029169999979786,0.0006770999998479965,0.0006770999998479965,1541.4434038000004,1541.4434038000004,0.016429100000095787,0.0,0.0,1,0,0,2.742885500000739,'click_1',1.3300000318849925e-05,1544.1868854999998,0.015549100000498584,,1544.6886749,1544.6886749,1544.6886749,0.0013471000002027722,0.017370300000038696,0.0013471000002027722,,,,,0.0,0.0,1,0,0,0.28391999999985273,'click_2',1.2999999853491317e-05,0.015426199999637902,,,,,,14_moebius_task,001,moebius,22,m,16,1,ari e sara,2024-01-19_13h33.18.738,CPO_EEG,2022.2.1,59.87640312866482,
stimoli/01.full/M03-Sadness-Face Forward.mp4,sad,full,maschio,4,6,720,576,48,,,,,,,,,,,,,,,,,0,0,0,0,,,,,,,,,0,48,48,47,,,0.1370096000000558,1546.6018410000001,0.1443394999996599,0.0005898999997953069,0.0005898999997953069,1552.5780246999998,1552.5780246999998,0.016440599999441474,-17.0,-99.0,1,0,0,12.51275159999932,'click_1',1.3799999578623101e-05,1565.0911925000005,0.015456999999514665,,1565.5932445000003,1565.5932445000003,1565.5932445000003,0.0016360999998141779,0.01755299999967974,0.0016360999998141779,,,,,0.0,0.0,1,0,0,1.990492500000073,'click_2',1.2999999853491317e-05,0.015399799999613606,,,,,,14_moebius_task,001,moebius,22,m,16,1,ari e sara,2024-01-19_13h33.18.738,CPO_EEG,2022.2.1,59.87640312866482,
stimoli/01.full/M03-Neutral-Face Forward.mp4,neutral,full,maschio,4,6,720,576,56,,,,,,,,,,,,,,,,,0,0,0,0,,,,,,,,,0,49,49,55,,,0.13734579999982088,1569.2133612000002,0.14469699999972363,0.0006051999998817337,0.0006051999998817337,1575.1883283000002,1575.1883283000002,0.016341300000021874,0.0,0.0,1,0,0,3.947134400000323,'click_1',1.3500000022759195e-05,1579.1361047000005,0.0155838999999105,,1579.6382994,1579.6382994,1579.6382994,0.0018105999997715116,0.01775439999983064,0.0018105999997715116,,,,,0.0,0.0,1,0,0,0.21709670000018377,'click_2',1.359999987471383e-05,0.015560899999400135,,,,,,14_moebius_task,001,moebius,22,m,16,1,ari e sara,2024-01-19_13h33.18.738,CPO_EEG,2022.2.1,59.87640312866482,
stimoli/02.subtle/JF1_Neutral.mp4,neutral,subtle,femmina,5,10,1646,926,25,,,,,,,,,,,,,,,,,0,0,0,0,,,,,,,,,0,50,50,24,,,0.14055289999942033,1581.4880957999999,0.14783489999990707,0.0006277000002228306,0.0006277000002228306,1592.2618933999997,1592.2618933999997,0.01635770000029879,37.0,-56.0,1,0,0,7.93002449999949,'click_1',1.3700000636163168e-05,1600.1925633000005,0.015563200000542565,,1600.6944583,1600.6944583,1600.6944583,0.0014349000002766843,0.01744070000040665,0.0014349000002766843,,,,,2.0,0.0,1,0,0,3.1450652000003174,'click_2',1.4200000805431046e-05,0.01547630000004574,,,,,,14_moebius_task,001,moebius,22,m,16,1,ari e sara,2024-01-19_13h33.18.738,CPO_EEG,2022.2.1,59.87640312866482,
stimoli/02.subtle/JM2_Neutral.mp4,neutral,subtle,maschio,8,10,1646,926,28,,,,,,,,,,,,,,,,,0,0,0,0,,,,,,,,,0,51,51,27,,,0.1385881000005611,1605.4702405000003,0.1458334000008108,0.0006867999991300167,0.0006867999991300167,1616.4133203000006,1616.4133203000006,0.01653919999989739,-12.0,-66.0,1,0,0,16.493820499999856,'click_1',1.3299999409355223e-05,1632.9075390000003,0.015459999999620777,,1633.4096298999998,1633.4096298999998,1633.4096298999998,0.0016388999993068865,0.017577899999196234,0.0016388999993068865,,,,,2.0,3.0,1,0,0,0.9696955999997954,'click_2',1.3099999705445953e-05,0.015628099999958067,,,,,,14_moebius_task,001,moebius,22,m,16,1,ari e sara,2024-01-19_13h33.18.738,CPO_EEG,2022.2.1,59.87640312866482,
stimoli/02.subtle/JM1_Sadness.mp4,sad,subtle,maschio,7,10,1646,926,19,,,,,,,,,,,,,,,,,0,0,0,0,,,,,,,,,0,52,52,18,,,0.13979420000032405,1636.0112962999997,0.14706329999989975,0.0006619000005230191,0.0006619000005230191,1646.3844865000005,1646.3844865000005,0.01641250000011496,-13.0,-63.0,1,0,0,6.724654099999498,'click_1',1.3699999726668466e-05,1653.1098856000003,0.015636000000085915,,1653.6117699000001,1653.6117699000001,1653.6117699000001,0.0016823999994812766,0.01754739999978483,0.0016823999994812766,,,,,14.0,-62.0,1,0,0,2.3581936999999016,'click_2',1.3699999726668466e-05,0.015684699999837903,,,,,,14_moebius_task,001,moebius,22,m,16,1,ari e sara,2024-01-19_13h33.18.738,CPO_EEG,2022.2.1,59.87640312866482,
stimoli/02.subtle/JM2_Sadness.mp4,sad,subtle,maschio,8,10,1646,926,20,,,,,,,,,,,,,,,,,0,0,0,0,,,,,,,,,0,53,53,19,,,0.13961469999958354,1657.6018268000003,0.14689629999975296,0.0006774000003133551,0.0006774000003133551,1668.1754708000003,1668.1754708000003,0.01636069999949541,-52.0,-35.0,1,0,0,6.774826699999721,'click_1',1.52000002344721e-05,1674.9509588000005,0.015429799999765237,,1675.4532628000002,1675.4532628000002,1675.4532628000002,0.0017702999994071433,0.017751200000020617,0.0017702999994071433,,,,,-12.0,-63.0,1,0,0,2.760182099999838,'click_2',1.559999964229064e-05,0.015238399999361718,,,,,,14_moebius_task,001,moebius,22,m,16,1,ari e sara,2024-01-19_13h33.18.738,CPO_EEG,2022.2.1,59.87640312866482,
stimoli/02.subtle/JF1_Anger.mp4,angry,subtle,femmina,5,10,1646,926,5,,,,,,,,,,,,,,,,,0,0,0,0,,,,,,,,,0,54,54,4,,,0.1402033999993364,1679.8459233999997,0.14757909999934782,0.000678899999911664,0.000678899999911664,1690.6195149,1690.6195149,0.016509200000655255,-10.0,65.0,1,0,0,1.873398100000486,'click_1',1.2700000297627412e-05,1692.4934614999997,0.015517000000727421,,1692.9952432000005,1692.9952432000005,1692.9952432000005,0.0014592000006814487,0.01732590000028722,0.0014592000006814487,,,,,4.0,0.0,1,0,0,1.154182100000071,'click_2',1.3099999705445953e-05,0.015490800000407035,,,,,,14_moebius_task,001,moebius,22,m,16,1,ari e sara,2024-01-19_13h33.18.738,CPO_EEG,2022.2.1,59.87640312866482,
stimoli/01.full/M02-Sadness-Face Forward.mp4,sad,full,maschio,3,6,720,576,47,,,,,,,,,,,,,,,,,0,0,0,0,,,,,,,,,0,55,55,46,,,0.13788780000049883,1695.7796932000006,0.14526800000021467,0.0006761999993614154,0.0006761999993614154,1701.4049369,1701.4049369,0.016432800000075076,-22.0,-97.0,1,0,0,13.233998900000188,'click_1',1.2500000593718141e-05,1714.6398736000006,0.015879100000347535,,1715.141725,1715.141725,1715.141725,0.0016722000000299886,0.017735500000526372,0.0016722000000299886,,,,,23.0,-99.0,1,0,0,1.8567653000000064,'click_2',1.3999999282532372e-05,0.015813099999832048,,,,,,14_moebius_task,001,moebius,22,m,16,1,ari e sara,2024-01-19_13h33.18.738,CPO_EEG,2022.2.1,59.87640312866482,
,,,,,,,,,,,,,,,,,,,,,,,,,0,0,0,0,,,,,,,,,,,,,,,,,,,,,,,,,,,,,,,,,,,,,,,,,,,,,,,,,,,,,,,,,,14_moebius_task,001,moebius,22,m,16,1,ari e sara,2024-01-19_13h33.18.738,CPO_EEG,2022.2.1,59.87640312866482,
,,,,,,,,,,,,,,,,,,,,,,,,,1,0,1,0,,,,,0,0,0,0,,,,,,,,,,,,,,,,,,,,,,,,,,,,,,,,,,,,,,,,,,,,,,,,,,14_moebius_task,001,moebius,22,m,16,1,ari e sara,2024-01-19_13h33.18.738,CPO_EEG,2022.2.1,59.87640312866482,
stimoli/01.full/F03-Joy-Face Forward.mp4,happy,full,femmina,2,6,720,576,42,,,,,,,,,,,,,,,,,1,0,1,0,,,,,,,,,0,0,0,41,,,0.13652470000033645,1763.5488504999998,0.1438259000005928,0.0007228000004033674,0.0007228000004033674,1769.5298060999999,1769.5298060999999,0.016552600000068196,99.0,68.0,1,0,0,6.591238099999828,'click_1',1.6699999832781032e-05,1776.1216872,0.015141200000471144,,1776.6236762000003,1776.6236762000003,1776.6236762000003,0.001136400000177673,0.017161400000077265,0.001136400000177673,,,,,0.0,0.0,1,0,0,4.382442600000104,'click_2',1.3199999557400588e-05,0.015310499999941385,,,,,,14_moebius_task,001,moebius,22,m,16,1,ari e sara,2024-01-19_13h33.18.738,CPO_EEG,2022.2.1,59.87640312866482,
stimoli/02.subtle/JF1_Surprise.mp4,surprised,subtle,femmina,5,10,1646,926,21,,,,,,,,,,,,,,,,,1,0,1,0,,,,,,,,,0,1,1,20,,,0.13475990000006277,1782.6335191000003,0.14223279999987426,0.0006917000000612461,0.0006917000000612461,1793.4126584,1793.4126584,0.01644750000014028,24.0,-113.0,1,0,0,14.538539899999705,'click_1',1.3300000318849925e-05,1807.9519825000002,0.015777999999954773,,1808.4540874,1808.4540874,1808.4540874,0.0018254000005981652,0.017891700000291166,0.0018254000005981652,,,,,67.0,-100.0,1,0,0,3.780413899999985,'click_2',1.3299999409355223e-05,0.015418699999827368,,,,,,14_moebius_task,001,moebius,22,m,16,1,ari e sara,2024-01-19_13h33.18.738,CPO_EEG,2022.2.1,59.87640312866482,
stimoli/01.full/F03-Disgust-Face Forward.mp4,disgusted,full,femmina,2,6,720,576,38,,,,,,,,,,,,,,,,,1,0,1,0,,,,,,,,,0,2,2,37,,,0.1325608999995893,1813.8591836,0.13990060000014637,0.0006744000002072426,0.0006744000002072426,1819.8379989,1819.8379989,0.016299099999741884,-43.0,199.0,1,0,0,10.841804200000297,'click_1',1.3199999557400588e-05,1830.6804542000004,0.015475100000003295,,1831.1823656000001,1831.1823656000001,1831.1823656000001,0.0013834999999744468,0.01741200000014942,0.0013834999999744468,,,,,-78.0,115.0,1,0,0,2.7605533999994805,'click_2',1.3600000784208532e-05,0.015497600000344391,,,,,,14_moebius_task,001,moebius,22,m,16,1,ari e sara,2024-01-19_13h33.18.738,CPO_EEG,2022.2.1,59.87640312866482,
stimoli/02.subtle/JF1_Neutral.mp4,neutral,subtle,femmina,5,10,1646,926,25,,,,,,,,,,,,,,,,,1,0,1,0,,,,,,,,,0,3,3,24,,,0.1330286000002161,1835.5679820999999,0.14029610000034154,0.0007547000004706206,0.0007547000004706206,1846.3480001000003,1846.3480001000003,0.01631180000003951,55.0,-36.0,1,0,0,5.43720520000079,'click_1',1.340000017080456e-05,1851.7860191000004,0.015575600000374834,,1852.2878606,1852.2878606,1852.2878606,0.0016032000003178837,0.01743110000006709,0.0016032000003178837,,,,,55.0,34.0,1,0,0,5.286319699999694,'click_2',1.3099999705445953e-05,0.015500099999371741,,,,,,14_moebius_task,001,moebius,22,m,16,1,ari e sara,2024-01-19_13h33.18.738,CPO_EEG,2022.2.1,59.87640312866482,
stimoli/02.subtle/JF2_Sadness.mp4,sad,subtle,femmina,6,8,1646,926,18,,,,,,,,,,,,,,,,,1,0,1,0,,,,,,,,,0,4,4,17,,,0.13501719999931083,1859.201498,0.1423045000001366,0.0006808999996792409,0.0006808999996792409,1867.5385732,1867.5385732,0.01650710000012623,-21.0,-117.0,1,0,0,8.649275200000375,'click_1',1.3299999409355223e-05,1876.1883158000005,0.015483000000131142,,1876.6902648,1876.6902648,1876.6902648,0.0014507999994748388,0.017423299999791197,0.0014507999994748388,,,,,1.0,-3.0,1,0,0,8.431260099999236,'click_2',1.539999993838137e-05,0.01543500000025233,,,,,,14_moebius_task,001,moebius,22,m,16,1,ari e sara,2024-01-19_13h33.18.738,CPO_EEG,2022.2.1,59.87640312866482,
stimoli/01.full/M02-Joy-Face Forward.mp4,happy,full,maschio,3,6,720,576,43,,,,,,,,,,,,,,,,,1,0,1,0,,,,,,,,,0,5,5,42,,,0.13129409999964992,1886.7449669000002,0.13856639999994513,0.0007159999995565158,0.0007159999995565158,1892.7254736,1892.7254736,0.016356199999790988,121.0,81.0,1,0,0,5.035595199999989,'click_1',1.4700000065204222e-05,1897.7618013000006,0.015077900000505906,,1898.2638047000005,1898.2638047000005,1898.2638047000005,0.0011133000007248484,0.017101900000852766,0.0011133000007248484,,,,,36.0,53.0,1,0,0,1.4386125000000902,'click_2',1.359999987471383e-05,0.015698600000177976,,,,,,14_moebius_task,001,moebius,22,m,16,1,ari e sara,2024-01-19_13h33.18.738,CPO_EEG,2022.2.1,59.87640312866482,
stimoli/02.subtle/JM2_Fear.mp4,fear,subtle,maschio,8,10,1646,926,4,,,,,,,,,,,,,,,,,1,0,1,0,,,,,,,,,0,6,6,3,,,0.1321685000002617,1901.3266411999998,0.13941950000025827,0.0007224999999380088,0.0007224999999380088,1911.9065833,1911.9065833,0.01626620000024559,-28.0,-137.0,1,0,0,12.565027900000132,'click_1',1.359999987471383e-05,1924.4724836999999,0.015655799999876763,,1924.9743373000006,1924.9743373000006,1924.9743373000006,0.001524000000244996,0.017530299999634735,0.001524000000244996,,,,,-34.0,-51.0,1,0,0,6.641821100000016,'click_2',1.3299999409355223e-05,0.015555699999822536,,,,,,14_moebius_task,001,moebius,22,m,16,1,ari e sara,2024-01-19_13h33.18.738,CPO_EEG,2022.2.1,59.87640312866482,
stimoli/01.full/F03-Fear-Face Forward.mp4,fear,full,femmina,2,6,720,576,30,,,,,,,,,,,,,,,,,1,0,1,0,,,,,,,,,0,7,7,29,,,0.13055230000009033,1933.2388182999998,0.1378525999998601,0.0007085999995979364,0.0007085999995979364,1939.2197757,1939.2197757,0.01653489999989688,-93.0,-137.0,1,0,0,9.51905490000081,'click_1',1.3199999557400588e-05,1948.7394344,0.015660699999898497,,1949.2412638,1949.2412638,1949.2412638,0.001529399999526504,0.017471199999818054,0.001529399999526504,,,,,-61.0,-14.0,1,0,0,2.910199300000386,'click_2',1.320000046689529e-05,0.01581869999972696,,,,,,14_moebius_task,001,moebius,22,m,16,1,ari e sara,2024-01-19_13h33.18.738,CPO_EEG,2022.2.1,59.87640312866482,
stimoli/01.full/F03-Neutral-Face Forward.mp4,neutral,full,femmina,2,6,720,576,54,,,,,,,,,,,,,,,,,1,0,1,0,,,,,,,,,0,8,8,53,,,0.13136350000058883,1953.7750621,0.1387574999998833,0.000740100000257371,0.000740100000257371,1959.7561651,1959.7561651,0.016417900000305963,0.0,0.0,1,0,0,0.6682607000002463,'click_1',1.2999999853491317e-05,1960.4252483000005,0.01571339999918564,,1960.9270566999999,1960.9270566999999,1960.9270566999999,0.0014146999992590281,0.017526599999655446,0.0014146999992590281,,,,,0.0,0.0,1,0,0,0.21717160000025615,'click_2',1.3800000488117803e-05,0.01566850000017439,,,,,,14_moebius_task,001,moebius,22,m,16,1,ari e sara,2024-01-19_13h33.18.738,CPO_EEG,2022.2.1,59.87640312866482,
stimoli/02.subtle/JM2_Surprise.mp4,surprised,subtle,maschio,8,10,1646,926,24,,,,,,,,,,,,,,,,,1,0,1,0,,,,,,,,,0,9,9,23,,,0.13355520000004617,1962.7696916,0.14078109999991284,0.0006391999995685183,0.0006391999995685183,1973.7161892999998,1973.7161892999998,0.016449599999759812,24.0,-117.0,1,0,0,3.9648698000000877,'click_1',1.4500000361294951e-05,1977.6814306,0.015363600000455335,,1978.1834584000003,1978.1834584000003,1978.1834584000003,0.0013847000000168919,0.01732689999971626,0.0013847000000168919,,,,,78.0,-14.0,1,0,0,4.4331227999991825,'click_2',1.3300000318849925e-05,0.015615799999977753,,,,,,14_moebius_task,001,moebius,22,m,16,1,ari e sara,2024-01-19_13h33.18.738,CPO_EEG,2022.2.1,59.87640312866482,
stimoli/02.subtle/JM1_Happiness.mp4,happy,subtle,maschio,7,10,1646,926,15,,,,,,,,,,,,,,,,,1,0,1,0,,,,,,,,,0,10,10,14,,,0.131513499999528,1984.2403587000003,0.13888029999998253,0.000716900000043097,0.000716900000043097,1994.6198029000002,1994.6198029000002,0.016428399999313115,-78.0,15.0,1,0,0,11.69610460000058,'click_1',1.6699999832781032e-05,2006.3164679000006,0.01542539999991277,,2006.8184002000003,2006.8184002000003,2006.8184002000003,0.0014542999997502193,0.017366299999594048,0.0014542999997502193,,,,,1.0,0.0,1,0,0,6.541254199999457,'click_2',1.359999987471383e-05,0.015721799999482755,,,,,,14_moebius_task,001,moebius,22,m,16,1,ari e sara,2024-01-19_13h33.18.738,CPO_EEG,2022.2.1,59.87640312866482,
stimoli/01.full/M02-Surprise-Face Forward.mp4,surprised,full,maschio,3,6,720,576,51,,,,,,,,,,,,,,,,,1,0,1,0,,,,,,,,,0,11,11,50,,,0.131453999999394,2014.983444,0.13891459999922517,0.0007145999998101615,0.0007145999998101615,2020.9639553000002,2020.9639553000002,0.016439699999864388,30.0,-108.0,1,0,0,1.2209712999992917,'click_1',1.3100000614940654e-05,2022.1853800000004,0.015394900000501366,,2022.6871481000003,2022.6871481000003,2022.6871481000003,0.0012587999999595922,0.017171800000141957,0.0012587999999595922,,,,,1.0,0.0,1,0,0,3.496746699999676,'click_2',1.359999987471383e-05,0.015363600000455335,,,,,,14_moebius_task,001,moebius,22,m,16,1,ari e sara,2024-01-19_13h33.18.738,CPO_EEG,2022.2.1,59.87640312866482,
stimoli/01.full/M03-Sadness-Face Forward.mp4,sad,full,maschio,4,6,720,576,48,,,,,,,,,,,,,,,,,1,0,1,0,,,,,,,,,0,12,12,47,,,0.12975550000010116,2027.8056825999997,0.13694200000009005,0.0006923000000824686,0.0006923000000824686,2033.7885554,2033.7885554,0.016329600000062783,-27.0,-141.0,1,0,0,8.346807300000364,'click_1',1.3099999705445953e-05,2042.1362961999998,0.01573160000043572,,2042.6383038999998,2042.6383038999998,2042.6383038999998,0.0018475999995644088,0.017772299999705865,0.0018475999995644088,,,,,0.0,0.0,1,0,0,4.466214899999613,'click_2',1.3399999261309858e-05,0.015486599999348982,,,,,,14_moebius_task,001,moebius,22,m,16,1,ari e sara,2024-01-19_13h33.18.738,CPO_EEG,2022.2.1,59.87640312866482,
stimoli/01.full/F01-Sadness-Face Forward.mp4,sad,full,femmina,1,6,720,576,45,,,,,,,,,,,,,,,,,1,0,1,0,,,,,,,,,0,13,13,44,,,0.13120549999985087,2048.7276396,0.13825999999971827,0.000601499999902444,0.000601499999902444,2054.7082832,2054.7082832,0.01641049999943789,-29.0,-166.0,1,0,0,9.619484499999999,'click_1',1.3799999578623101e-05,2064.3284172999997,0.01569599999947968,,2064.8301695000005,2064.8301695000005,2064.8301695000005,0.0016126999998959946,0.017517599999337108,0.0016126999998959946,,,,,1.0,3.0,1,0,0,1.572485300000153,'click_2',1.3300000318849925e-05,0.015605300000061106,,,,,,14_moebius_task,001,moebius,22,m,16,1,ari e sara,2024-01-19_13h33.18.738,CPO_EEG,2022.2.1,59.87640312866482,
stimoli/01.full/F01-Anger-Face Forward.mp4,angry,full,femmina,1,6,720,576,33,,,,,,,,,,,,,,,,,1,0,1,0,,,,,,,,,0,14,14,32,,,0.1320437000003949,2068.0270921000006,0.13950060000024678,0.0007218000000648317,0.0007218000000648317,2074.0072333000003,2074.0072333000003,0.016533800000615884,-31.0,162.0,1,0,0,5.939177199999904,'click_1',1.4000000192027073e-05,2079.9469885000003,0.015593400000398105,,2080.4488643,2080.4488643,2080.4488643,0.0014665000007880735,0.017513700000563404,0.0014665000007880735,,,,,-34.0,54.0,1,0,0,5.788028900000427,'click_2',1.4199999895936344e-05,0.015393099999528204,,,,,,14_moebius_task,001,moebius,22,m,16,1,ari e sara,2024-01-19_13h33.18.738,CPO_EEG,2022.2.1,59.87640312866482,
stimoli/01.full/M03-Joy-Face Forward.mp4,happy,full,maschio,4,6,720,576,44,,,,,,,,,,,,,,,,,1,0,1,0,,,,,,,,,0,15,15,43,,,0.12984249999954045,2087.8588379,0.13711719999992056,0.0006725000002916204,0.0006725000002916204,2093.8403832999998,2093.8403832999998,0.01644840000062686,28.0,141.0,1,0,0,10.45548509999935,'click_1',1.3500000022759195e-05,2104.2964797,0.01553550000062387,,2104.7982815,2104.7982815,2104.7982815,0.001423100000465638,0.01734610000039538,0.001423100000465638,,,,,123.0,77.0,1,0,0,2.040940099999716,'click_2',1.6799999684735667e-05,0.015790800000104355,,,,,,14_moebius_task,001,moebius,22,m,16,1,ari e sara,2024-01-19_13h33.18.738,CPO_EEG,2022.2.1,59.87640312866482,
stimoli/01.full/M02-Sadness-Face Forward.mp4,sad,full,maschio,3,6,720,576,47,,,,,,,,,,,,,,,,,1,0,1,0,,,,,,,,,0,16,16,46,,,0.13267400000040652,2108.4641325,0.14007500000025175,0.0007211000001916545,0.0007211000001916545,2114.0753835,2114.0753835,0.01634009999997943,24.0,-115.0,1,0,0,4.918092900000374,'click_1',1.3699999726668466e-05,2118.9941648999998,0.015542699999969045,,2119.4961463000004,2119.4961463000004,2119.4961463000004,0.0015212999996947474,0.017526900000120804,0.0015212999996947474,,,,,-64.0,-99.0,1,0,0,1.371590799999467,'click_2',1.3500000022759195e-05,0.015671199999815144,,,,,,14_moebius_task,001,moebius,22,m,16,1,ari e sara,2024-01-19_13h33.18.738,CPO_EEG,2022.2.1,59.87640312866482,
stimoli/02.subtle/JF1_Disgust.mp4,disgusted,subtle,femmina,5,10,1646,926,9,,,,,,,,,,,,,,,,,1,0,1,0,,,,,,,,,0,17,17,8,,,0.13430500000049506,2122.4943446,0.14182900000014342,0.0006742000005033333,0.0006742000005033333,2133.2742792000004,2133.2742792000004,0.016598100000010163,-140.0,93.0,1,0,0,4.550572999999531,'click_1',1.7800000023271423e-05,2137.8251403,0.01539379999940138,,2138.3270342,2138.3270342,2138.3270342,0.0011713999992934987,0.01728449999973236,0.0011713999992934987,,,,,-12.0,-65.0,1,0,0,4.985652700000173,'click_2',1.2800000149582047e-05,0.01541330000054586,,,,,,14_moebius_task,001,moebius,22,m,16,1,ari e sara,2024-01-19_13h33.18.738,CPO_EEG,2022.2.1,59.87640312866482,
stimoli/01.full/M03-Neutral-Face Forward.mp4,neutral,full,maschio,4,6,720,576,56,,,,,,,,,,,,,,,,,1,0,1,0,,,,,,,,,0,18,18,55,,,0.12813009999990754,2144.9328442,0.13546790000054898,0.0007354999997915002,0.0007354999997915002,2150.9496614000004,2150.9496614000004,0.016327799999999115,,,,,,,,1.3500000022759195e-05,2170.9599463,0.015841000000364147,,2171.4618811000005,2171.4618811000005,2171.4618811000005,0.0018947999997180887,0.017747599999893282,0.0018947999997180887,,,,,63.0,-12.0,1,0,0,7.226807600000029,'click_2',1.2999999853491317e-05,0.015389600000162318,,,20.00993269999981,2170.9599463,2170.9599463,14_moebius_task,001,moebius,22,m,16,1,ari e sara,2024-01-19_13h33.18.738,CPO_EEG,2022.2.1,59.87640312866482,
stimoli/02.subtle/JF2_Happiness.mp4,happy,subtle,femmina,6,9,1646,926,14,,,,,,,,,,,,,,,,,1,0,1,0,,,,,,,,,0,19,19,13,,,0.13364739999997255,2180.3145718,0.14087579999977606,0.0009033999995153863,0.0009033999995153863,2189.7719838,2189.7719838,0.01632439999957569,66.0,100.0,1,0,0,10.756323399999928,'click_1',1.3500000022759195e-05,2200.529097,0.01543000000037864,,2201.0309758999997,2201.0309758999997,2201.0309758999997,0.0013323000002856134,0.01731720000043424,0.0013323000002856134,,,,,37.0,-54.0,1,0,0,3.2289067000001523,'click_2',1.4400000509340316e-05,0.015545400000519294,,,,,,14_moebius_task,001,moebius,22,m,16,1,ari e sara,2024-01-19_13h33.18.738,CPO_EEG,2022.2.1,59.87640312866482,
stimoli/02.subtle/JM1_Anger.mp4,angry,subtle,maschio,7,10,1646,926,7,,,,,,,,,,,,,,,,,1,0,1,0,,,,,,,,,0,20,20,6,,,0.13278160000027128,2205.8848540000004,0.14016090000041004,0.0007889999997132691,0.0007889999997132691,2216.2646181000005,2216.2646181000005,0.016499600000315695,-20.0,116.0,1,0,0,8.399476399999912,'click_1',1.3600000784208532e-05,2224.6645897000003,0.015430900000865222,,2225.1666595,2225.1666595,2225.1666595,0.0015885000002526795,0.017521900000247115,0.0015885000002526795,,,,,-34.0,53.0,1,0,0,10.88978599999973,'click_2',1.4899999769113492e-05,0.01568070000030275,,,,,,14_moebius_task,001,moebius,22,m,16,1,ari e sara,2024-01-19_13h33.18.738,CPO_EEG,2022.2.1,59.87640312866482,
stimoli/01.full/M03-Disgust-Face Forward.mp4,disgusted,full,maschio,4,6,720,576,40,,,,,,,,,,,,,,,,,1,0,1,0,,,,,,,,,0,21,21,39,,,0.12999170000057347,2237.678724,0.1372945000002801,0.0007063000002744957,0.0007063000002744957,2243.6604128000004,2243.6604128000004,0.016416899999967427,-143.0,91.0,1,0,0,3.061203399999613,'click_1',1.2700000297627412e-05,2246.7222419000004,0.015509500000007392,,2247.2238803000005,2247.2238803000005,2247.2238803000005,0.001248400000804395,0.01714330000049813,0.001248400000804395,,,,,-9.0,60.0,1,0,0,1.4555262000003495,'click_2',1.7100000150094274e-05,0.015570499999739695,,,,,,14_moebius_task,001,moebius,22,m,16,1,ari e sara,2024-01-19_13h33.18.738,CPO_EEG,2022.2.1,59.87640312866482,
stimoli/02.subtle/JM2_Anger.mp4,angry,subtle,maschio,8,10,1646,926,8,,,,,,,,,,,,,,,,,1,0,1,0,,,,,,,,,0,22,22,7,,,0.1313308999997389,2250.3028799,0.13858280000022205,0.0007156000001486973,0.0007156000001486973,2261.2362742,2261.2362742,0.016297900000608934,-33.0,164.0,1,0,0,3.7476231000000553,'click_1',1.4399999599845614e-05,2264.9844582,0.015333299999838346,,2265.4862814000003,2265.4862814000003,2265.4862814000003,0.0012200999999549822,0.01715749999948457,0.0012200999999549822,,,,,-31.0,52.0,1,0,0,9.85320320000028,'click_2',1.3099999705445953e-05,0.015450099999725353,,,,,,14_moebius_task,001,moebius,22,m,16,1,ari e sara,2024-01-19_13h33.18.738,CPO_EEG,2022.2.1,59.87640312866482,
stimoli/02.subtle/JM2_Sadness.mp4,sad,subtle,maschio,8,10,1646,926,20,,,,,,,,,,,,,,,,,1,0,1,0,,,,,,,,,0,23,23,19,,,0.13159259999974893,2276.9632493000004,0.13878029999978025,0.0007075000003169407,0.0007075000003169407,2287.5443407,2287.5443407,0.01642100000026403,-78.0,-12.0,1,0,0,6.357339200000752,'click_1',1.320000046689529e-05,2293.9023711000004,0.015652099999897473,,2294.4045171000002,2294.4045171000002,2294.4045171000002,0.0016241000002992223,0.01779080000051181,0.0016241000002992223,,,,,-9.0,-64.0,1,0,0,3.279105999999956,'click_2',1.3500000022759195e-05,0.015565499999866006,,,,,,14_moebius_task,001,moebius,22,m,16,1,ari e sara,2024-01-19_13h33.18.738,CPO_EEG,2022.2.1,59.87640312866482,
stimoli/02.subtle/JM1_Neutral.mp4,neutral,subtle,maschio,7,10,1646,926,27,,,,,,,,,,,,,,,,,1,0,1,0,,,,,,,,,0,24,24,26,,,0.13765190000049188,2299.3131017,0.14485160000003816,0.000701100000696897,0.000701100000696897,2309.6879401,2309.6879401,0.016500200000336918,0.0,0.0,1,0,0,0.48469569999997475,'click_1',1.3099999705445953e-05,2310.1729445000005,0.015241299999615876,,2310.6749050000003,2310.6749050000003,2310.6749050000003,0.0011179000002812245,0.017245600000023842,0.0011179000002812245,,,,,0.0,0.0,1,0,0,0.20039850000011938,'click_2',1.320000046689529e-05,0.015635800000382005,,,,,,14_moebius_task,001,moebius,22,m,16,1,ari e sara,2024-01-19_13h33.18.738,CPO_EEG,2022.2.1,59.87640312866482,
stimoli/02.subtle/JM2_Neutral.mp4,neutral,subtle,maschio,8,10,1646,926,28,,,,,,,,,,,,,,,,,1,0,1,0,,,,,,,,,0,25,25,27,,,0.13185690000045724,2312.4990171000004,0.13903120000031777,0.0006155999999464257,0.0006155999999464257,2323.4306873,2323.4306873,0.016324299999723735,1.0,2.0,1,0,0,7.527990800000225,'click_1',1.3700000636163168e-05,2330.9592598000004,0.015538500000729982,,2331.4612282000003,2331.4612282000003,2331.4612282000003,0.0015437000001838896,0.01750460000039311,0.0015437000001838896,,,,,-13.0,-62.0,1,0,0,2.3588987000002817,'click_2',1.3299999409355223e-05,0.015484999999898719,,,,,,14_moebius_task,001,moebius,22,m,16,1,ari e sara,2024-01-19_13h33.18.738,CPO_EEG,2022.2.1,59.87640312866482,
stimoli/02.subtle/JM1_Disgust.mp4,disgusted,subtle,maschio,7,10,1646,926,11,,,,,,,,,,,,,,,,,1,0,1,0,,,,,,,,,0,26,26,10,,,0.13414259999990463,2335.4464017000005,0.14145639999969717,0.0006915000003573368,0.0006915000003573368,2345.8269370000003,2345.8269370000003,0.016544200000680576,-120.0,78.0,1,0,0,6.7084519,'click_1',1.2900000001536682e-05,2352.5359733,0.015641900000446185,,2353.0379718,2353.0379718,2353.0379718,0.0017290000005232287,0.017626100000597944,0.0017290000005232287,,,,,13.0,-64.0,1,0,0,2.0744043999993664,'click_2',1.3300000318849925e-05,0.01534799999990355,,,,,,14_moebius_task,001,moebius,22,m,16,1,ari e sara,2024-01-19_13h33.18.738,CPO_EEG,2022.2.1,59.87640312866482,
stimoli/01.full/F03-Sadness-Face Forward.mp4,sad,full,femmina,2,6,720,576,46,,,,,,,,,,,,,,,,,1,0,1,0,,,,,,,,,0,27,27,45,,,0.1315703999998732,2356.7359819,0.13867750000008527,0.0006940000002941815,0.0006940000002941815,2362.7170275000003,2362.7170275000003,0.01634100000046601,-24.0,-139.0,1,0,0,4.081936499999756,'click_1',1.3099999705445953e-05,2366.7995486000004,0.015493599999899743,,2367.3015562000005,2367.3015562000005,2367.3015562000005,0.0016416999997090898,0.017545800000334566,0.0016416999997090898,,,,,-20.0,116.0,1,0,0,1.4216659999992771,'click_2',1.3700000636163168e-05,0.01556570000047941,,,,,,14_moebius_task,001,moebius,22,m,16,1,ari e sara,2024-01-19_13h33.18.738,CPO_EEG,2022.2.1,59.87640312866482,
stimoli/02.subtle/JF1_Sadness.mp4,sad,subtle,femmina,5,10,1646,926,17,,,,,,,,,,,,,,,,,1,0,1,0,,,,,,,,,0,28,28,16,,,0.1334418000005826,2370.3488727,0.14075120000052266,0.0006820999997216859,0.0006820999997216859,2381.1299957000006,2381.1299957000006,0.016409899999416666,-16.0,-79.0,1,0,0,3.278883799999676,'click_1',1.3500000022759195e-05,2384.4094572999998,0.015466800000467629,,2384.9114526,2384.9114526,2384.9114526,0.001614499999959662,0.01746880000064266,0.001614499999959662,,,,,0.0,-1.0,1,0,0,0.75335079999968,'click_2',1.3999999282532372e-05,0.014505399999507063,,,,,,14_moebius_task,001,moebius,22,m,16,1,ari e sara,2024-01-19_13h33.18.738,CPO_EEG,2022.2.1,59.87640312866482,
stimoli/02.subtle/JM1_Sadness.mp4,sad,subtle,maschio,7,10,1646,926,19,,,,,,,,,,,,,,,,,1,0,1,0,,,,,,,,,0,29,29,18,,,0.1315482999998494,2387.2885710000005,0.13884159999997792,0.0006827000006524031,0.0006827000006524031,2397.6672875,2397.6672875,0.016430399999990186,-12.0,-64.0,1,0,0,8.498728499999743,'click_1',1.340000017080456e-05,2406.1666273000005,0.015584199999466364,,2406.6685973,2406.6685973,2406.6685973,0.0017167999994853744,0.017522399999506888,0.0017167999994853744,,,,,-52.0,-35.0,1,0,0,1.588952199999767,'click_2',1.6899999536690302e-05,0.015612399999554327,,,,,,14_moebius_task,001,moebius,22,m,16,1,ari e sara,2024-01-19_13h33.18.738,CPO_EEG,2022.2.1,59.87640312866482,
stimoli/01.full/M02-Neutral-Face Forward.mp4,neutral,full,maschio,3,6,720,576,55,,,,,,,,,,,,,,,,,1,0,1,0,,,,,,,,,0,30,30,54,,,0.13146969999979774,2409.8813215000005,0.13881189999938215,0.0007184000005509006,0.0007184000005509006,2415.8625889,2415.8625889,0.016516100000444567,56.0,32.0,1,0,0,7.377517500000067,'click_1',1.340000017080456e-05,2423.2408376,0.015675800000281015,,2423.7429331999997,2423.7429331999997,2423.7429331999997,0.0019778000005317153,0.017770600000403647,0.0019778000005317153,,,,,-4.0,6.0,1,0,0,1.973459300000286,'click_2',1.3699999726668466e-05,0.015680299999985436,,,,,,14_moebius_task,001,moebius,22,m,16,1,ari e sara,2024-01-19_13h33.18.738,CPO_EEG,2022.2.1,59.87640312866482,
stimoli/02.subtle/JM2_Disgust.mp4,disgusted,subtle,maschio,8,10,1646,926,12,,,,,,,,,,,,,,,,,1,0,1,0,,,,,,,,,0,31,31,11,,,0.13227939999978844,2427.3409965000005,0.13957459999983257,0.00073069999962172,0.00073069999962172,2437.921779,2437.921779,0.016343399999641406,21.0,-98.0,1,0,0,6.5248457000006965,'click_1',1.3799999578623101e-05,2444.4472760000003,0.01545449999957782,,2444.9492892000003,2444.9492892000003,2444.9492892000003,0.001557900000079826,0.017470099999627564,0.001557900000079826,,,,,-15.0,-77.0,1,0,0,3.730484300000171,'click_2',1.3099999705445953e-05,0.015405399999508518,,,,,,14_moebius_task,001,moebius,22,m,16,1,ari e sara,2024-01-19_13h33.18.738,CPO_EEG,2022.2.1,59.87640312866482,
stimoli/02.subtle/JF2_Neutral.mp4,neutral,subtle,femmina,6,9,1646,926,26,,,,,,,,,,,,,,,,,1,0,1,0,,,,,,,,,0,32,32,25,,,0.1342451999998957,2450.3063116999997,0.14161699999931443,0.0007820999999239575,0.0007820999999239575,2459.7633251,2459.7633251,0.01637529999970866,-54.0,36.0,1,0,0,12.597593099999358,'click_1',1.269999938813271e-05,2472.3617078,0.015542899999672954,,2472.8632683,2472.8632683,2472.8632683,0.0014597999997931765,0.01712249999945925,0.0014597999997931765,,,,,0.0,0.0,1,0,0,0.3340933999998015,'click_2',1.3899999430577736e-05,0.01525099999980739,,,,,,14_moebius_task,001,moebius,22,m,16,1,ari e sara,2024-01-19_13h33.18.738,CPO_EEG,2022.2.1,59.87640312866482,
stimoli/01.full/F01-Joy-Face Forward.mp4,happy,full,femmina,1,6,720,576,41,,,,,,,,,,,,,,,,,1,0,1,0,,,,,,,,,0,33,33,40,,,0.13190320000012434,2474.8218391000005,0.13912540000001172,0.0005997999996907311,0.0005997999996907311,2480.8016448000003,2480.8016448000003,0.0163935999999012,100.0,68.0,1,0,0,3.496009299999969,'click_1',1.3299999409355223e-05,2484.2982672000003,0.015641399999367422,,2484.8002199,2484.8002199,2484.8002199,0.001735299999381823,0.01760019999983342,0.001735299999381823,,,,,0.0,0.0,1,0,0,0.4010741000001872,'click_2',1.320000046689529e-05,0.015447600000698003,,,,,,14_moebius_task,001,moebius,22,m,16,1,ari e sara,2024-01-19_13h33.18.738,CPO_EEG,2022.2.1,59.87640312866482,
stimoli/02.subtle/JF2_Disgust.mp4,disgusted,subtle,femmina,6,10,1646,926,10,,,,,,,,,,,,,,,,,1,0,1,0,,,,,,,,,0,34,34,9,,,0.13524320000033185,2486.8288084,0.14251100000001315,0.0007080999994286685,0.0007080999994286685,2497.2057205000006,2497.2057205000006,0.016463899999507703,-21.0,-119.0,1,0,0,9.017598200000066,'click_1',1.3699999726668466e-05,2506.2241316000004,0.015653299999939918,,2506.7261636,2506.7261636,2506.7261636,0.0017472999998062733,0.01772069999969972,0.0017472999998062733,,,,,-54.0,36.0,1,0,0,3.3792333999999755,'click_2',1.3199999557400588e-05,0.01563910000004398,,,,,,14_moebius_task,001,moebius,22,m,16,1,ari e sara,2024-01-19_13h33.18.738,CPO_EEG,2022.2.1,59.87640312866482,
stimoli/01.full/F03-Anger-Face Forward.mp4,angry,full,femmina,2,6,720,576,34,,,,,,,,,,,,,,,,,1,0,1,0,,,,,,,,,0,35,35,33,,,0.13125380000019504,2511.7287922,0.13857459999962884,0.0006825000000389991,0.0006825000000389991,2517.7109084999997,2517.7109084999997,0.016394999999647553,-23.0,113.0,1,0,0,7.712168500000189,'click_1',1.3500000022759195e-05,2525.4238449,0.015691200000219396,,2525.9261969000004,2525.9261969000004,2525.9261969000004,0.0020543000000543543,0.018088199999510834,0.0020543000000543543,,,,,-13.0,-64.0,1,0,0,3.2958457000004273,'click_2',1.3099999705445953e-05,0.015586800000164658,,,,,,14_moebius_task,001,moebius,22,m,16,1,ari e sara,2024-01-19_13h33.18.738,CPO_EEG,2022.2.1,59.87640312866482,
stimoli/02.subtle/JF2_Fear.mp4,fear,subtle,femmina,6,10,1646,926,2,,,,,,,,,,,,,,,,,1,0,1,0,,,,,,,,,0,36,36,1,,,0.13682590000007622,2530.8511111000003,0.1443184999998266,0.0007236999999804539,0.0007236999999804539,2541.2266096,2541.2266096,0.01650770000014745,-36.0,-52.0,1,0,0,2.3752495999997336,'click_1',1.2900000001536682e-05,2543.6024970000003,0.015596799999912037,,2544.1042719,2544.1042719,2544.1042719,0.0014837999997325824,0.017395599999872502,0.0014837999997325824,,,,,14.0,-64.0,1,0,0,3.0111227000006693,'click_2',1.340000017080456e-05,0.015594999999848369,,,,,,14_moebius_task,001,moebius,22,m,16,1,ari e sara,2024-01-19_13h33.18.738,CPO_EEG,2022.2.1,59.87640312866482,
stimoli/02.subtle/JF1_Anger.mp4,angry,subtle,femmina,5,10,1646,926,5,,,,,,,,,,,,,,,,,1,0,1,0,,,,,,,,,0,37,37,4,,,0.13538340000013704,2548.7429374999997,0.14267180000024382,0.0007304000000658561,0.0007304000000658561,2559.5216542000003,2559.5216542000003,0.0165300999997271,-14.0,61.0,1,0,0,3.9991226000001916,'click_1',1.6599999980826396e-05,2563.5207329,0.014919199999894772,2564.0224797000005,2564.0224797000005,2564.0224797000005,2564.0224797000005,0.0009823999998843647,0.016664400000081514,0.0009823999998843647,,,,,-33.0,57.0,1,0,0,1.3054019999999582,'click_2',1.3300000318849925e-05,0.014639900000474881,,,,,,14_moebius_task,001,moebius,22,m,16,1,ari e sara,2024-01-19_13h33.18.738,CPO_EEG,2022.2.1,59.87640312866482,
stimoli/01.full/F01-Surprise-Face Forward.mp4,surprised,full,femmina,1,6,720,576,49,,,,,,,,,,,,,,,,,1,0,1,0,,,,,,,,,0,38,38,48,,,0.13017130000025645,2566.9510336,0.13801210000019637,0.0006782999998904415,0.0006782999998904415,2572.9329379000005,2572.9329379000005,0.016495200000463228,32.0,-169.0,1,0,0,2.3588569999992615,'click_1',1.6899999536690302e-05,2575.2923842000005,0.015640699999494245,,2575.7942751000005,2575.7942751000005,2575.7942751000005,0.0015907999995761202,0.01751669999976002,0.0015907999995761202,,,,,0.0,0.0,1,0,0,0.45119419999991806,'click_2',1.340000017080456e-05,0.015530900000157999,,,,,,14_moebius_task,001,moebius,22,m,16,1,ari e sara,2024-01-19_13h33.18.738,CPO_EEG,2022.2.1,59.87640312866482,
stimoli/02.subtle/JF1_Fear.mp4,fear,subtle,femmina,5,10,1646,926,1,,,,,,,,,,,,,,,,,1,0,1,0,,,,,,,,,0,39,39,0,,,0.1353374000000258,2577.8730271,0.1426949999995486,0.0007113000001481851,0.0007113000001481851,2588.6504253,2588.6504253,0.016477299999678507,-56.0,-81.0,1,0,0,8.46536180000021,'click_1',1.539999993838137e-05,2597.116165,0.015112400000361959,,2597.6182725000003,2597.6182725000003,2597.6182725000003,0.0012282999996386934,0.017267500000343716,0.0012282999996386934,,,,,-63.0,-12.0,1,0,0,8.381360499999573,'click_2',1.3600000784208532e-05,0.015322000000196567,,,,,,14_moebius_task,001,moebius,22,m,16,1,ari e sara,2024-01-19_13h33.18.738,CPO_EEG,2022.2.1,59.87640312866482,
stimoli/02.subtle/JM1_Fear.mp4,fear,subtle,maschio,7,10,1646,926,3,,,,,,,,,,,,,,,,,1,0,1,0,,,,,,,,,0,40,40,2,,,0.13183490000028542,2607.6234949000004,0.1391131000000314,0.0006866000003356021,0.0006866000003356021,2618.0030592,2618.0030592,0.016434899999694608,20.0,-99.0,1,0,0,9.93628759999956,'click_1',1.3500000022759195e-05,2627.9402628000003,0.015858200000366196,,2628.4422339,2628.4422339,2628.4422339,0.0018013000008068047,0.01784730000053969,0.0018013000008068047,,,,,0.0,0.0,1,0,0,0.7693441000001258,'click_2',1.3300000318849925e-05,0.01565480000044772,,,,,,14_moebius_task,001,moebius,22,m,16,1,ari e sara,2024-01-19_13h33.18.738,CPO_EEG,2022.2.1,59.87640312866482,
stimoli/02.subtle/JF2_Anger.mp4,angry,subtle,femmina,6,9,1646,926,6,,,,,,,,,,,,,,,,,1,0,1,0,,,,,,,,,0,41,41,5,,,0.13592790000075183,2630.8395479000005,0.14319520000026387,0.0006748000005245558,0.0006748000005245558,2640.2976638000005,2640.2976638000005,0.01631950000046345,-24.0,115.0,1,0,0,6.875631900000371,'click_1',1.3299999409355223e-05,2647.1738998000005,0.015465499999663734,,2647.6755939,2647.6755939,2647.6755939,0.0011137999999846215,0.017167999999401218,0.0011137999999846215,,,,,-36.0,50.0,1,0,0,1.739664300000186,'click_2',1.4000000192027073e-05,0.015726599999652535,,,,,,14_moebius_task,001,moebius,22,m,16,1,ari e sara,2024-01-19_13h33.18.738,CPO_EEG,2022.2.1,59.87640312866482,
stimoli/02.subtle/JM1_Surprise.mp4,surprised,subtle,maschio,7,10,1646,926,23,,,,,,,,,,,,,,,,,1,0,1,0,,,,,,,,,0,42,42,22,,,0.13103429999955551,2651.0382721,0.13827859999946668,0.0007054999996398692,0.0007054999996398692,2661.4189197,2661.4189197,0.01637529999970866,26.0,-115.0,1,0,0,5.822299100000237,'click_1',1.3999999282532372e-05,2667.2417435,0.015369199999440752,,2667.7438195,2667.7438195,2667.7438195,0.00152429999980086,0.01743110000006709,0.00152429999980086,,,,,47.0,-67.0,1,0,0,4.767212200000358,'click_2',1.5300000086426735e-05,0.01541070000075706,,,,,,14_moebius_task,001,moebius,22,m,16,1,ari e sara,2024-01-19_13h33.18.738,CPO_EEG,2022.2.1,59.87640312866482,
stimoli/01.full/M03-Anger-Face Forward.mp4,angry,full,maschio,4,6,720,576,36,,,,,,,,,,,,,,,,,1,0,1,0,,,,,,,,,0,43,43,35,,,0.13073609999992186,2674.1342615,0.13827209999999468,0.0008372000002054847,0.0008372000002054847,2680.1153984,2680.1153984,0.01636899999994057,-35.0,164.0,1,0,0,3.8810763999999836,'click_1',1.3500000022759195e-05,2683.9971815000004,0.015456400000402937,,2684.4990479000003,2684.4990479000003,2684.4990479000003,0.001434700000572775,0.017367700000249897,0.001434700000572775,,,,,0.0,0.0,1,0,0,1.5218342000007397,'click_2',1.3500000022759195e-05,0.015516899999965972,,,,,,14_moebius_task,001,moebius,22,m,16,1,ari e sara,2024-01-19_13h33.18.738,CPO_EEG,2022.2.1,59.87640312866482,
stimoli/01.full/M02-Anger-Face Forward.mp4,angry,full,maschio,3,6,720,576,35,,,,,,,,,,,,,,,,,1,0,1,0,,,,,,,,,0,44,44,34,,,0.1319442000003619,2687.6450542,0.13929319999988365,0.0006342000006043236,0.0006342000006043236,2693.6246476,2693.6246476,0.016361500000130036,-14.0,76.0,1,0,0,4.550399700000526,'click_1',1.4700000065204222e-05,2698.175608,0.015501200000471727,,2698.6774374,2698.6774374,2698.6774374,0.0014116000002104556,0.017313800000010815,0.0014116000002104556,,,,,-1.0,-1.0,1,0,0,2.877674399999705,'click_2',1.3500000022759195e-05,0.015448400000423135,,,,,,14_moebius_task,001,moebius,22,m,16,1,ari e sara,2024-01-19_13h33.18.738,CPO_EEG,2022.2.1,59.87640312866482,
stimoli/01.full/M03-Surprise-Face Forward.mp4,surprised,full,maschio,4,6,720,576,52,,,,,,,,,,,,,,,,,1,0,1,0,,,,,,,,,0,45,45,51,,,0.127953900000648,2703.1754137000003,0.13546339999993506,0.0006825000000389991,0.0006825000000389991,2709.1936577,2709.1936577,0.01650710000012623,27.0,-138.0,1,0,0,5.470671500000208,'click_1',1.359999987471383e-05,2714.6645469,0.015185299999757262,,2715.1663028,2715.1663028,2715.1663028,0.0010452999995322898,0.016958799999883922,0.0010452999995322898,,,,,0.0,0.0,1,0,0,0.8360394000001179,'click_2',1.4000000192027073e-05,0.01547969999955967,,,,,,14_moebius_task,001,moebius,22,m,16,1,ari e sara,2024-01-19_13h33.18.738,CPO_EEG,2022.2.1,59.87640312866482,
stimoli/01.full/F01-Neutral-Face Forward.mp4,neutral,full,femmina,1,6,720,576,53,,,,,,,,,,,,,,,,,1,0,1,0,,,,,,,,,0,46,46,52,,,0.13144689999990078,2717.6260496,0.13880739999967773,0.0007159999995565158,0.0007159999995565158,2723.6070360999997,2723.6070360999997,0.016483399999742687,-23.0,-115.0,1,0,0,4.985298800000237,'click_1',1.3500000022759195e-05,2728.5929619000003,0.01560810000046331,,2729.0947605000006,2729.0947605000006,2729.0947605000006,0.0014664000000266242,0.017419400000108,0.0014664000000266242,,,,,0.0,1.0,1,0,0,10.070834999999533,'click_2',1.3500000022759195e-05,0.015411299999868788,,,,,,14_moebius_task,001,moebius,22,m,16,1,ari e sara,2024-01-19_13h33.18.738,CPO_EEG,2022.2.1,59.87640312866482,
stimoli/01.full/F03-Surprise-Face Forward.mp4,surprised,full,femmina,2,6,720,576,50,,,,,,,,,,,,,,,,,1,0,1,0,,,,,,,,,0,47,47,49,,,0.13214119999975082,2740.7900688000004,0.1396124000002601,0.0007196999995358055,0.0007196999995358055,2746.7696888000005,2746.7696888000005,0.016439099999843165,30.0,-140.0,1,0,0,2.5105094000000463,'click_1',1.3899999430577736e-05,2749.2798334000004,0.014476399999693967,2749.7819658000003,2749.7819658000003,2749.7819658000003,2749.7819658000003,0.0012447999997675652,0.01667300000008254,0.0012447999997675652,,,,,69.0,-100.0,1,0,0,1.2038658999999825,'click_2',1.3199999557400588e-05,0.015585799999826122,,,,,,14_moebius_task,001,moebius,22,m,16,1,ari e sara,2024-01-19_13h33.18.738,CPO_EEG,2022.2.1,59.87640312866482,
stimoli/01.full/F01-Fear-Face Forward.mp4,fear,full,femmina,1,6,720,576,29,,,,,,,,,,,,,,,,,1,0,1,0,,,,,,,,,0,48,48,28,,,0.13135020000026998,2752.6099584999997,0.13874490000034712,0.0007103999996616039,0.0007103999996616039,2758.5914325,2758.5914325,0.016372099999898637,-62.0,-100.0,1,0,0,2.7766388000000006,'click_1',1.3900000340072438e-05,2761.368871,0.015656500000659435,,2761.8707895000002,2761.8707895000002,2761.8707895000002,0.001623900000595313,0.017622100000153296,0.001623900000595313,,,,,-52.0,-13.0,1,0,0,3.58026080000036,'click_2',1.359999987471383e-05,0.015382899999167421,,,,,,14_moebius_task,001,moebius,22,m,16,1,ari e sara,2024-01-19_13h33.18.738,CPO_EEG,2022.2.1,59.87640312866482,
stimoli/01.full/F01-Disgust-Face Forward.mp4,disgusted,full,femmina,1,6,720,576,37,,,,,,,,,,,,,,,,,1,0,1,0,,,,,,,,,0,49,49,36,,,0.13302409999960219,2767.0762869000005,0.140420599999743,0.000666099999762082,0.000666099999762082,2773.0578666000006,2773.0578666000006,0.016421599999375758,-94.0,134.0,1,0,0,12.498620700000174,'click_1',1.3500000022759195e-05,2785.5571358,0.015590100000736129,,2786.0588877000005,2786.0588877000005,2786.0588877000005,0.0015185000002020388,0.017333600000711158,0.0015185000002020388,,,,,-18.0,97.0,1,0,0,1.522581799999898,'click_2',1.4400000509340316e-05,0.01534200000060082,,,,,,14_moebius_task,001,moebius,22,m,16,1,ari e sara,2024-01-19_13h33.18.738,CPO_EEG,2022.2.1,59.87640312866482,
stimoli/02.subtle/JF2_Surprise.mp4,surprised,subtle,femmina,6,10,1646,926,22,,,,,,,,,,,,,,,,,1,0,1,0,,,,,,,,,0,50,50,21,,,0.13411080000059883,2789.2080503,0.1414535000003525,0.0007116999995560036,0.0007116999995560036,2799.5889389999998,2799.5889389999998,0.016448599999421276,26.0,-116.0,1,0,0,3.4460579000005964,'click_1',1.2900000001536682e-05,2803.0355277000003,0.015479000000595988,,2803.5373466000005,2803.5373466000005,2803.5373466000005,0.001394599999912316,0.017305299999861745,0.001394599999912316,,,,,38.0,-57.0,1,0,0,2.291610400000536,'click_2',1.3199999557400588e-05,0.015477500000088185,,,,,,14_moebius_task,001,moebius,22,m,16,1,ari e sara,2024-01-19_13h33.18.738,CPO_EEG,2022.2.1,59.87640312866482,
stimoli/02.subtle/JF1_Happiness.mp4,happy,subtle,femmina,5,10,1646,926,13,,,,,,,,,,,,,,,,,1,0,1,0,,,,,,,,,0,51,51,12,,,0.13385250000010274,2807.4549983,0.1411441999998715,0.0006762000002709101,0.0006762000002709101,2818.2352452,2818.2352452,0.01631459999953222,118.0,23.0,1,0,0,8.615831900000558,'click_1',1.359999987471383e-05,2826.8518043999998,0.015579299999444629,,2827.3539106000003,2827.3539106000003,2827.3539106000003,0.0017614999997022096,0.017734699999891745,0.0017614999997022096,,,,,56.0,87.0,1,0,0,1.9912648999998055,'click_2',1.5199999324977398e-05,0.01543859999947017,,,,,,14_moebius_task,001,moebius,22,m,16,1,ari e sara,2024-01-19_13h33.18.738,CPO_EEG,2022.2.1,59.87640312866482,
stimoli/01.full/M02-Disgust-Face Forward.mp4,disgusted,full,maschio,3,6,720,576,39,,,,,,,,,,,,,,,,,1,0,1,0,,,,,,,,,0,52,52,38,,,0.13053799999943294,2830.9680024000004,0.13788119999935589,0.0008498000006511575,0.0008498000006511575,2836.9500025,2836.9500025,0.016901800000596268,-140.0,91.0,1,0,0,2.6430345000007947,'click_1',1.4199999895936344e-05,2839.593324,0.015477099999770871,,2840.0950834,2840.0950834,2840.0950834,0.0014940999999453197,0.017267399999582267,0.0014940999999453197,,,,,0.0,0.0,1,0,0,0.6022431999999753,'click_2',1.5700000403739978e-05,0.014956099999835715,,,,,,14_moebius_task,001,moebius,22,m,16,1,ari e sara,2024-01-19_13h33.18.738,CPO_EEG,2022.2.1,59.87640312866482,
stimoli/01.full/M03-Fear-Face Forward.mp4,fear,full,maschio,4,6,720,576,32,,,,,,,,,,,,,,,,,1,0,1,0,,,,,,,,,0,53,53,31,,,0.1310500999998112,2842.3209667000006,0.13849959999970451,0.0005943999994997284,0.0005943999994997284,2848.3016863,2848.3016863,0.016495199999553734,-91.0,-141.0,1,0,0,3.3291724999999133,'click_1',1.3600000784208532e-05,2851.6312259,0.015467800000806164,,2852.1330116000004,2852.1330116000004,2852.1330116000004,0.0013985000005050097,0.01729810000051657,0.0013985000005050097,,,,,0.0,0.0,1,0,0,3.328482900000381,'click_2',1.4900000678608194e-05,0.015330300000641728,,,,,,14_moebius_task,001,moebius,22,m,16,1,ari e sara,2024-01-19_13h33.18.738,CPO_EEG,2022.2.1,59.87640312866482,
stimoli/02.subtle/JM2_Happiness.mp4,happy,subtle,maschio,8,10,1646,926,16,,,,,,,,,,,,,,,,,1,0,1,0,,,,,,,,,0,54,54,15,,,0.13204400000086025,2857.0857254,0.13920950000010635,0.0007098000005498761,0.0007098000005498761,2867.665601,2867.665601,0.016515000000254076,13.0,-65.0,1,0,0,9.554289400000016,'click_1',1.3099999705445953e-05,2877.2204262,0.015526499999396037,,2877.7222931,2877.7222931,2877.7222931,0.0014063999997233623,0.017424699999537552,0.0014063999997233623,,,,,41.0,-55.0,1,0,0,3.044250299999476,'click_2',1.3100000614940654e-05,0.015859500000260596,,,,,,14_moebius_task,001,moebius,22,m,16,1,ari e sara,2024-01-19_13h33.18.738,CPO_EEG,2022.2.1,59.87640312866482,
stimoli/01.full/M02-Fear-Face Forward.mp4,fear,full,maschio,3,6,720,576,31,,,,,,,,,,,,,,,,,1,0,1,0,,,,,,,,,0,55,55,30,,,0.13219200000003184,2882.390898,0.13962200000059966,0.0006750000002284651,0.0006750000002284651,2888.3713643000006,2888.3713643000006,0.016424000000370143,-67.0,-100.0,1,0,0,5.905232099999921,'click_1',1.3299999409355223e-05,2894.2773253,0.01566889999958221,,2894.7795039,2894.7795039,2894.7795039,0.001889899999696354,0.01785459999973682,0.001889899999696354,,,,,0.0,0.0,1,0,0,1.3376680999999735,'click_2',1.359999987471383e-05,0.015634899999895424,,,,,,14_moebius_task,001,moebius,22,m,16,1,ari e sara,2024-01-19_13h33.18.738,CPO_EEG,2022.2.1,59.87640312866482,
,,,,,,,,,,,,,,,,,,,,,,,,,1,0,1,0,,,,,,,,,,,,,,,,,,,,,,,,,,,,,,,,,,,,,,,,,,,,,,,,,,,,,,,,,,14_moebius_task,001,moebius,22,m,16,1,ari e sara,2024-01-19_13h33.18.738,CPO_EEG,2022.2.1,59.87640312866482,
